"Time (s)","Acceleration x (m/s^2)","Acceleration y (m/s^2)","Acceleration z (m/s^2)","Absolute acceleration (m/s^2)"
0.000000000E0,-1.504221954E0,4.951852570E0,8.915011139E0,1.030829526E1
1.003999999E-2,-1.151854706E0,4.767735443E0,8.928932190E0,1.018743837E1
2.011100000E-2,-1.146016846E0,4.449796600E0,9.121431885E0,1.021345015E1
3.018199999E-2,-1.073268127E0,4.301604767E0,8.784332886E0,9.839726230E0
4.022200000E-2,-5.876779175E-1,4.306694183E0,8.540789337E0,9.583217759E0
5.029300000E-2,-5.158273315E-1,4.274660797E0,8.611592102E0,9.627996744E0
6.036400000E-2,-6.849755859E-1,4.183350677E0,8.692124634E0,9.670710682E0
7.040400000E-2,-9.892927551E-1,4.179009705E0,8.927734680E0,9.906930341E0
8.047500000E-2,-1.187779999E0,4.357588348E0,8.895102539E0,9.976083737E0
9.054600000E-2,-1.098565521E0,4.491559753E0,8.673712921E0,9.829254858E0
1.006160000E-1,-8.187973022E-1,4.312681732E0,8.567733307E0,9.626822257E0
1.106570000E-1,-7.939489746E-1,3.992647247E0,8.621770935E0,9.534491128E0
1.207270000E-1,-1.095422058E0,3.883224792E0,8.752299500E0,9.637537590E0
1.307980000E-1,-1.135987701E0,3.955374756E0,8.729995880E0,9.651335948E0
1.408390000E-1,-9.274713135E-1,3.907624054E0,8.805738373E0,9.678365413E0
1.509090000E-1,-3.553610229E-1,3.702251129E0,8.914861450E0,9.659591066E0
1.609800000E-1,5.523513794E-1,3.495680695E0,9.108558655E0,9.771935138E0
1.710200000E-1,1.195863190E0,3.203039246E0,9.082213440E0,9.704439713E0
1.810910000E-1,1.194216614E0,2.808010712E0,9.109307098E0,9.606797244E0
1.911620000E-1,6.738986206E-1,2.702480164E0,9.489516449E0,9.889816016E0
2.012020000E-1,2.062710571E-1,2.822081451E0,9.570647736E0,9.980179835E0
2.112730000E-1,-1.401086426E-1,2.879262543E0,9.973909149E0,1.038213114E1
2.213440000E-1,-9.957293701E-1,3.142415314E0,1.017269577E1,1.069345549E1
2.313840000E-1,-1.347348175E0,3.419489136E0,1.032268387E1,1.095746573E1
2.414550000E-1,-5.102888489E-1,3.230581970E0,1.045201492E1,1.095178846E1
2.515260000E-1,4.878355408E-1,2.745291138E0,1.015533188E1,1.053116197E1
2.615660000E-1,1.295406189E0,2.612517242E0,9.777367859E0,1.020295280E1
2.716370000E-1,1.595831451E0,3.052901459E0,8.413553925E0,9.091467152E0
2.817080000E-1,2.105521545E0,3.219355316E0,7.670050049E0,8.580625699E0
2.917780000E-1,4.086651764E0,2.181264038E0,8.095615082E0,9.327251417E0
3.018190000E-1,5.905968475E0,9.210346985E-1,8.094716949E0,1.006246546E1
3.118900000E-1,6.479126587E0,5.074447632E-2,7.552544403E0,9.951009159E0
3.219600000E-1,6.495742035E0,-6.466552734E-2,7.346722412E0,9.806792361E0
3.320010000E-1,7.433990936E0,7.321275330E-1,6.423442383E0,9.851946204E0
3.420710000E-1,7.112459564E0,1.215622101E0,5.521717529E0,9.085933228E0
3.521420000E-1,6.431974640E0,1.036893768E0,4.226311340E0,7.765768088E0
3.621830000E-1,5.980064392E0,7.725434875E-1,3.083437958E0,6.772413396E0
3.722530000E-1,3.864513702E0,-8.104147339E-1,1.565744019E0,4.247680841E0
3.823240000E-1,-1.780247955E0,-4.579726410E0,-1.013542328E0,5.017015529E0
3.923640000E-1,-6.860832825E0,-8.207133179E0,-3.155887299E0,1.115292279E1
4.024350000E-1,-1.496138763E0,-4.411925354E0,-1.655407562E0,4.944076327E0
4.125060000E-1,5.157824249E0,-1.672771454E0,-1.270857239E-1,5.423787063E0
4.225460000E-1,6.364764404E0,-4.220174103E0,-1.598825226E0,7.802328978E0
4.326170000E-1,5.980663147E0,-5.869594116E0,-2.373314667E0,8.709367903E0
4.426880000E-1,5.690566406E0,-5.700445862E0,-3.484753418E-1,8.062199707E0
4.527590000E-1,3.700454865E0,-5.621559906E0,2.135159912E0,7.060751365E0
4.627990000E-1,3.254831543E0,-5.753884735E0,2.244282990E0,6.981255192E0
4.728700000E-1,4.339176636E0,-6.492299194E0,1.058299255E0,7.880253804E0
4.829410000E-1,5.194647675E0,-6.946604462E0,1.683848419E0,8.836007215E0
4.929810000E-1,5.922434235E0,-6.939120026E0,2.757266235E0,9.530431842E0
5.030520000E-1,6.703060913E0,-7.262447662E0,3.366349640E0,1.044061691E1
5.131220000E-1,7.664212189E0,-7.515421600E0,4.167034607E0,1.151459455E1
5.231630000E-1,9.177415466E0,-7.373217316E0,4.934488678E0,1.276473528E1
5.332340000E-1,1.100900665E1,-7.058122559E0,5.408702545E0,1.415165661E1
5.433040000E-1,1.280976196E1,-6.389612732E0,5.662275238E0,1.539410645E1
5.533450000E-1,1.455198898E1,-5.724994812E0,5.575006714E0,1.660170620E1
5.634150000E-1,1.689970688E1,-5.217400360E0,5.469326477E0,1.851310053E1
5.734860000E-1,2.019091278E1,-4.373006287E0,5.409450989E0,2.135552160E1
5.835270000E-1,2.278876053E1,-2.858306122E0,4.078568573E0,2.332664232E1
5.935970000E-1,2.375110931E1,-9.955796814E-1,2.561772766E0,2.390960167E1
6.036680000E-1,2.393911835E1,3.659889221E-1,1.661395111E0,2.399949101E1
6.137390000E-1,2.467079681E1,9.392967224E-1,7.906558228E-1,2.470132851E1
6.237790000E-1,2.493888931E1,1.374591522E0,-3.936813354E-2,2.497677425E1
6.338500000E-1,2.433639221E1,1.779200134E0,-1.144969025E0,2.442819054E1
6.439210000E-1,2.310235840E1,1.588197327E0,-2.422861633E0,2.328328999E1
6.539610000E-1,2.143901733E1,1.196461945E0,-3.508703613E0,2.175715943E1
6.640320000E-1,1.987566833E1,1.004111938E0,-4.194876709E0,2.033832400E1
6.741030000E-1,1.841440704E1,7.442523193E-1,-4.624034271E0,1.900068397E1
6.841430000E-1,1.691796890E1,4.480183411E-1,-4.823569336E0,1.759787525E1
6.942140000E-1,1.622116791E1,-1.294807434E-1,-5.039121094E0,1.698634142E1
7.042850000E-1,1.573138641E1,-4.334985352E-1,-5.510939941E0,1.667437850E1
7.143250000E-1,1.554038361E1,-5.144801331E-1,-5.941295013E0,1.664533565E1
7.244128333E-1,1.597762436E1,-1.526824951E0,-6.872957611E0,1.746004642E1
7.344828333E-1,1.563124466E1,-2.905907135E0,-7.717800751E0,1.767327231E1
7.445238333E-1,1.381746643E1,-4.774770813E0,-7.818990326E0,1.657882458E1
7.545948333E-1,1.260858032E1,-5.035378876E0,-7.667954407E0,1.559259000E1
7.646648333E-1,1.206790466E1,-4.246519318E0,-8.119565277E0,1.515237901E1
7.747058333E-1,1.204709793E1,-3.814817047E0,-8.287665710E0,1.511194232E1
7.847758333E-1,1.208032883E1,-2.858605499E0,-7.910001068E0,1.471985349E1
7.948468333E-1,1.134326157E1,-2.994223480E0,-6.741381226E0,1.353074935E1
8.049178333E-1,1.080303497E1,-3.817062378E0,-5.740263062E0,1.281507510E1
8.149578333E-1,9.357191620E0,-3.027903442E0,-4.719984741E0,1.090887209E1
8.250288333E-1,7.253166962E0,-2.460583191E0,-3.924239502E0,8.605960509E0
8.350998333E-1,5.774691467E0,-2.509830780E0,-3.546125793E0,7.226432054E0
8.451398333E-1,4.272265778E0,-2.091301117E0,-3.208877106E0,5.737829513E0
8.552108333E-1,3.994144135E0,-1.021176453E0,-3.261567535E0,5.256787184E0
8.652818333E-1,5.022206268E0,-3.173400879E-2,-3.420237579E0,6.076313681E0
8.753218333E-1,5.906866608E0,1.845362549E0,-3.694018250E0,7.207094205E0
8.853928333E-1,6.331383820E0,3.347189484E0,-3.437002716E0,7.943745098E0
8.954638333E-1,6.836283875E0,2.806813202E0,-2.857407990E0,7.923241633E0
9.055038333E-1,7.817792816E0,1.321152649E0,-2.478845215E0,8.307105539E0
9.155748333E-1,8.166118469E0,1.995350647E-1,-1.216819611E0,8.258689670E0
9.256458333E-1,8.237370300E0,3.561094666E-1,-1.637295227E0,8.406058475E0
9.356858333E-1,9.326954498E0,8.592132568E-1,-2.871179352E0,9.796631998E0
9.457568333E-1,9.994416504E0,2.315983887E0,-4.379442902E0,1.115489412E1
9.558268333E-1,1.059975769E1,3.239563293E0,-5.275180206E0,1.227506251E1
9.658978333E-1,1.129356491E1,3.697012024E0,-5.723946991E0,1.318999907E1
9.759388333E-1,1.161180313E1,4.849166107E0,-5.044659576E0,1.355717427E1
9.860088333E-1,1.046833099E1,2.332599335E0,-1.959575043E0,1.090261014E1
9.960798333E-1,1.067879333E1,-1.375339966E0,1.938618622E0,1.094012931E1
1.006119833E0,1.113354767E1,-1.959275665E0,1.382075958E0,1.138880059E1
1.016190833E0,1.136736145E1,-3.315006409E0,-1.848655701E-1,1.184231181E1
1.026261833E0,1.168979095E1,-6.735992432E0,1.347198486E-2,1.349166365E1
1.036301833E0,9.590256958E0,-9.167835388E0,-4.728666687E-1,1.327576126E1
1.046372833E0,6.834337921E0,-9.948462067E0,-5.390290833E-1,1.208183035E1
1.056443833E0,6.997798004E0,-1.113534393E1,2.263293457E-1,1.315356554E1
1.066483833E0,7.727380829E0,-1.238943604E1,1.373843079E0,1.466621916E1
1.076554833E0,8.475525055E0,-1.150732040E1,3.824995880E0,1.479471329E1
1.086625833E0,9.859097900E0,-9.183253326E0,6.529122620E0,1.497208720E1
1.096665833E0,9.883197784E0,-9.175020447E0,2.884651337E0,1.379056968E1
1.106736833E0,8.505762177E0,-1.080063995E1,-3.400628357E0,1.416213567E1
1.116807833E0,8.591683502E0,-9.776918793E0,-4.730313263E0,1.384850281E1
1.126877833E0,1.025502457E1,-6.194718018E0,-5.783972168E-1,1.199477401E1
1.136918833E0,8.587043152E0,-4.017046509E0,7.214996338E-1,9.507604034E0
1.146989833E0,9.545350342E0,-6.182593231E0,-2.572700043E0,1.166005822E1
1.157059833E0,1.183259399E1,-5.657784576E0,-3.064876556E0,1.346901167E1
1.167100833E0,9.264833679E0,-3.231330414E0,-2.508782959E0,1.012781473E1
1.177170833E0,8.080496521E0,-3.682492218E0,-2.332449646E0,9.181257774E0
1.187241833E0,1.231593887E1,-4.431384888E0,-1.319655762E0,1.315526563E1
1.197282833E0,1.863669479E1,-6.477030945E-1,5.721102905E-1,1.865672057E1
1.207352833E0,1.897424286E1,3.822900238E0,1.693727875E0,1.942949234E1
1.217423833E0,1.424363022E1,4.765939178E0,2.440075836E0,1.521673908E1
1.227463833E0,1.014320709E1,3.789519653E0,2.484234009E0,1.110929916E1
1.237534833E0,7.199129333E0,2.941682739E0,2.183209991E0,8.077584191E0
1.247605833E0,6.030359802E0,2.749183044E0,2.330354004E0,7.025225729E0
1.257645833E0,7.053631897E0,2.554288330E0,2.240989838E0,7.829441057E0
1.267716833E0,7.866591339E0,4.929848328E0,7.719447327E-1,9.315715888E0
1.277787833E0,8.456215210E0,6.618187408E0,-8.785231018E-1,1.077403281E1
1.287858833E0,1.160342056E1,7.681875458E0,-2.006726990E0,1.405978423E1
1.297898833E0,1.467608093E1,7.291187897E0,-2.261946259E0,1.654282846E1
1.307969833E0,1.403780823E1,4.348906403E0,-1.736089783E0,1.479821119E1
1.318040833E0,1.233464996E1,1.770667877E0,-1.173559570E0,1.251623332E1
1.328080833E0,1.111109436E1,-5.120851135E-1,2.025288391E-1,1.112473222E1
1.338151833E0,9.805808716E0,-2.813100128E0,2.958747253E0,1.062175137E1
1.348221833E0,8.307424622E0,-4.684508514E0,5.709726562E0,1.111570516E1
1.358262833E0,5.922733612E0,-6.326743469E0,7.361840973E0,1.137115469E1
1.368333833E0,3.975433044E0,-8.081394653E0,8.676706696E0,1.250592845E1
1.378403833E0,-5.712121582E-1,-7.838150482E0,8.708590393E0,1.173040634E1
1.388444833E0,-5.341192932E0,-7.112908630E0,7.789501648E0,1.182362665E1
1.398514833E0,-5.992338867E0,-7.298672333E0,5.917793884E0,1.114446174E1
1.408585833E0,-6.640940094E0,-8.813222809E0,3.740272064E0,1.165180744E1
1.418626833E0,-8.329728241E0,-1.065918411E1,-1.584604797E0,1.362033593E1
1.428696833E0,-8.194559326E0,-1.399784134E1,-8.269104309E0,1.820627504E1
1.438767833E0,-3.798800354E0,-1.427865738E1,-7.591762848E0,1.661161653E1
1.448807833E0,1.314566345E1,-8.377928009E0,-5.713917847E0,1.660262035E1
1.458878833E0,1.826771210E1,-4.863087158E0,-4.440066833E0,1.941837057E1
1.468949833E0,1.004366409E1,-8.678802338E0,-3.529809723E0,1.373522315E1
1.479020833E0,4.700076141E0,-1.167512146E1,-3.081791382E0,1.295749262E1
1.489060833E0,1.385668488E0,-1.335208420E1,-2.811902618E0,1.371513857E1
1.499131833E0,2.562670898E-1,-1.428344742E1,-2.765050049E0,1.455087780E1
1.509202833E0,4.222718811E-1,-1.409513901E1,-2.811603241E0,1.437902535E1
1.519242833E0,2.178569641E0,-1.050425629E1,-3.093467102E0,1.116490504E1
1.529313833E0,2.277064819E0,-8.526119843E0,-3.043321381E0,9.334963781E0
1.539384833E0,8.771759033E-1,-8.878187714E0,-2.335293732E0,9.221998236E0
1.549424833E0,7.988887024E-1,-9.599387970E0,-1.472787323E0,9.744515127E0
1.559495833E0,1.525328064E0,-1.018841309E1,-7.878117371E-1,1.033203921E1
1.569565833E0,4.421206055E0,-1.051308792E1,-4.218228149E-1,1.141271287E1
1.579606833E0,1.117396362E1,-9.557175751E0,-1.760339355E-1,1.470469515E1
1.589677833E0,1.681258804E1,-7.368127899E0,3.234773254E-1,1.835911390E1
1.599747833E0,1.598226471E1,-7.260801086E0,1.127455444E0,1.759042846E1
1.609788833E0,1.170685547E1,-9.801467743E0,2.765349426E0,1.551664888E1
1.619858833E0,7.311844940E0,-1.329355591E1,5.189408569E0,1.603470194E1
1.629929833E0,3.607647858E0,-1.498937943E1,6.308780823E0,1.665825123E1
1.640000833E0,1.497186584E0,-1.458566895E1,6.190975800E0,1.591576224E1
1.650040833E0,1.790576477E0,-1.322739349E1,5.525908813E0,1.444665259E1
1.660111833E0,2.262844391E0,-1.185250259E1,4.447102203E0,1.285997669E1
1.670182833E0,2.383493500E0,-1.121722366E1,2.932102661E0,1.183656935E1
1.680222833E0,1.997895355E0,-1.270333328E1,1.996548157E0,1.301354936E1
1.690293833E0,1.456471252E0,-1.634870270E1,2.303260345E0,1.657426911E1
1.700364833E0,4.535568237E-1,-1.931283875E1,2.176773376E0,1.944041657E1
1.710404833E0,-6.914122009E-1,-2.033790710E1,1.217568054E0,2.038604886E1
1.720475833E0,-1.969604187E0,-1.912587753E1,1.481918335E-2,1.922703180E1
1.730563708E0,-2.692600708E0,-1.583871323E1,-8.813671875E-1,1.609011322E1
1.740603708E0,-3.322041779E0,-1.281859360E1,-1.391955414E0,1.331502322E1
1.750674708E0,-3.790866852E0,-1.062954575E1,-1.558109894E0,1.139234922E1
1.760745708E0,-3.927532654E0,-8.979077911E0,-1.251547394E0,9.880066992E0
1.770785708E0,-3.091221771E0,-7.245233459E0,-5.692662048E-1,7.897665727E0
1.780856708E0,-1.128203888E0,-5.939049683E0,3.454815674E-1,6.055122844E0
1.790926708E0,3.634442139E-1,-5.347629547E0,4.299060059E-1,5.377178874E0
1.800997708E0,1.318009186E0,-4.882097626E0,3.427871704E-2,5.056995202E0
1.811038708E0,1.999990997E0,-4.720433807E0,1.872605896E-1,5.130060998E0
1.821108708E0,2.255359955E0,-4.872068481E0,8.652008057E-1,5.438039375E0
1.831179708E0,2.374512177E0,-4.930297394E0,1.911225586E0,5.796457859E0
1.841219708E0,2.182461548E0,-4.809348907E0,3.002456360E0,6.075172386E0
1.851290708E0,1.780098267E0,-4.496798859E0,3.820355530E0,6.163202592E0
1.861361708E0,1.124910736E0,-4.063150635E0,4.201013947E0,5.951733817E0
1.871401708E0,4.858895874E-1,-3.778742065E0,3.918102264E0,5.465025676E0
1.881472708E0,2.953358459E-1,-3.656745758E0,2.854863281E0,4.648575820E0
1.891543708E0,-1.886077881E-2,-3.435056763E0,9.189390564E-1,3.555899279E0
1.901583708E0,-1.815724182E-1,-3.937561798E0,1.556762695E-2,3.941776732E0
1.911654708E0,-3.722758484E-1,-4.812043304E0,3.701802063E-1,4.840597428E0
1.921725708E0,-9.084608459E-1,-5.627697144E0,9.044192505E-1,5.771849827E0
1.931765708E0,-1.420545959E0,-6.708150330E0,5.050497437E-1,6.875485940E0
1.941836708E0,-1.551224213E0,-7.956105194E0,-1.331930237E0,8.214617737E0
1.951907708E0,-1.309925995E0,-9.200916595E0,-4.433929596E0,1.029720855E1
1.961947708E0,-1.148262177E0,-1.055679703E1,-8.109985199E0,1.336174874E1
1.972018708E0,-1.151705017E0,-1.168335434E1,-1.171598648E1,1.658588352E1
1.982089708E0,-1.285975800E0,-1.191522217E1,-1.484792358E1,1.908106621E1
1.992159708E0,-1.528172150E0,-1.143457169E1,-1.451456680E1,1.854069549E1
2.002200708E0,-1.538201294E0,-1.069675598E1,-1.191252777E1,1.608399732E1
2.012270708E0,-1.587897949E0,-9.722581787E0,-9.582024078E0,1.374282365E1
2.022341708E0,-1.470242615E0,-9.212592316E0,-7.627837830E0,1.205061743E1
2.032382708E0,-6.679110718E-1,-9.413624268E0,-6.271957397E0,1.133136694E1
2.042452708E0,5.471122742E-1,-1.014455429E1,-5.820945282E0,1.170874535E1
2.052523708E0,1.218166809E0,-1.085123474E1,-5.721402283E0,1.232751678E1
2.062563708E0,5.417234802E-1,-1.094928085E1,-5.219346313E0,1.214173758E1
2.072634708E0,-6.262976074E-1,-1.035082535E1,-4.218976593E0,1.119515956E1
2.082705708E0,-9.590556335E-1,-9.701625366E0,-3.536246338E0,1.037045614E1
2.092745708E0,-4.769082642E-1,-9.036408691E0,-3.485052795E0,9.696892106E0
2.102816708E0,1.546284485E-1,-8.601712646E0,-4.062252502E0,9.513951114E0
2.112887708E0,5.113366699E-1,-7.902516632E0,-5.396278381E0,9.582852116E0
2.122927708E0,4.326004028E-1,-6.117029572E0,-6.632108459E0,9.032721434E0
2.132998708E0,1.222208405E0,-3.813469849E0,-5.713917847E0,6.977478257E0
2.143069708E0,3.061583405E0,-3.352727966E0,-2.609224091E0,5.236614184E0
2.153140708E0,4.146826630E0,-4.761747894E0,7.200027466E-1,6.355219749E0
2.163180708E0,4.600682831E0,-7.861052856E0,2.989134064E0,9.586310916E0
2.173251708E0,4.495900726E0,-1.237207214E1,2.856509857E0,1.347000152E1
2.183321708E0,3.477119293E0,-1.654883652E1,1.697320404E0,1.699515358E1
2.193362708E0,-2.603086853E-1,-1.658835434E1,1.804347839E0,1.668822733E1
2.203433708E0,-4.830904083E0,-1.373798172E1,2.226619720E0,1.473185702E1
2.213503708E0,-7.505542145E0,-1.140149048E1,1.914518738E-1,1.365151280E1
2.223544708E0,-8.117918701E0,-9.883048096E0,-3.235821075E0,1.319264120E1
2.233614708E0,-7.331903229E0,-8.676557007E0,-4.360133057E0,1.216758837E1
2.243685708E0,-5.204227753E0,-7.457042999E0,-1.569486237E0,9.227933888E0
2.253726708E0,-2.376009064E0,-6.282435608E0,2.426304474E0,7.141524322E0
2.263796708E0,-5.640270996E-1,-6.166426849E0,4.462969208E0,7.632892034E0
2.273867708E0,6.230044556E-1,-6.622079315E0,4.775369568E0,8.188053708E0
2.283907708E0,1.457519073E0,-6.750811615E0,3.501219177E0,7.743148910E0
2.293978708E0,2.257605286E0,-7.095245361E0,1.559307404E0,7.607281245E0
2.304049708E0,2.952310638E0,-7.886949005E0,4.384382629E-1,8.432812747E0
2.314120708E0,3.322640533E0,-8.863667908E0,1.106049957E0,9.530367013E0
2.324160708E0,3.637585602E0,-9.974657593E0,3.016377411E0,1.103740711E1
2.334231708E0,4.100273438E0,-1.126153152E1,5.238207092E0,1.307949342E1
2.344302708E0,4.961732025E0,-1.279329620E1,6.948101349E0,1.538061523E1
2.354342708E0,6.442153473E0,-1.326316910E1,6.904392242E0,1.628138901E1
2.364413708E0,8.457412720E0,-1.221729401E1,5.229674835E0,1.575244748E1
2.374484708E0,8.941056976E0,-1.166179916E1,1.734592896E0,1.479692103E1
2.384524708E0,7.586074677E0,-1.109343109E1,-1.440454559E0,1.351619960E1
2.394595708E0,5.366939392E0,-1.017464172E1,-2.432890778E0,1.175781996E1
2.404665708E0,3.469036102E0,-9.920470276E0,-3.030597839E0,1.093775412E1
2.414706708E0,2.395318909E0,-1.007015900E1,-2.563569031E0,1.066384270E1
2.424777708E0,1.624571686E0,-1.031235535E1,-1.272952881E0,1.051685861E1
2.434847708E0,9.431886292E-1,-1.071352112E1,-4.552033997E-1,1.076458776E1
2.444888708E0,5.092410278E-1,-1.065723816E1,3.483256531E-1,1.067508231E1
2.454958708E0,7.415579224E-1,-9.988578644E0,3.119512939E-1,1.002092436E1
2.465029708E0,8.870553589E-1,-1.053838531E1,-2.016606445E0,1.076620331E1
2.475070708E0,9.027726746E-1,-1.242970230E1,-5.580245819E0,1.365472963E1
2.485140708E0,9.316625977E-1,-1.490764938E1,-9.139693909E0,1.751113960E1
2.495211708E0,8.997789001E-1,-1.610830261E1,-1.226145218E1,2.026401304E1
2.505282708E0,9.096583557E-1,-1.560684540E1,-1.393781616E1,2.094430283E1
2.515322708E0,8.801696777E-1,-1.348455872E1,-1.308698547E1,1.881162436E1
2.525393708E0,6.219566345E-1,-1.043524979E1,-1.058029816E1,1.487360001E1
2.535464708E0,-3.080593872E-1,-7.950417023E0,-8.177195435E0,1.140923120E1
2.545504708E0,-1.754351807E0,-6.656058655E0,-6.808441772E0,9.681722287E0
2.555575708E0,-3.211421814E0,-5.556145935E0,-6.164780273E0,8.898792252E0
2.565646708E0,-4.077371063E0,-4.374503174E0,-5.892346802E0,8.395295328E0
2.575686708E0,-4.079466705E0,-4.245471497E0,-5.776787109E0,8.248475382E0
2.585757708E0,-2.615361328E0,-5.141807556E0,-4.534969482E0,7.337863996E0
2.595828708E0,-1.898052979E-1,-6.863078156E0,-1.694176941E0,7.071640780E0
2.605868708E0,2.215991821E0,-9.891131287E0,1.698068848E0,1.027757441E1
2.615939708E0,3.881278839E0,-1.387225250E1,4.893923035E0,1.521361882E1
2.626009708E0,4.659660187E0,-1.750055740E1,8.096213837E0,1.983760623E1
2.636050708E0,5.498815155E0,-1.863265320E1,9.655670929E0,2.169434752E1
2.646121708E0,6.503376160E0,-1.683369415E1,8.280181274E0,1.985518981E1
2.656191708E0,7.319778442E0,-1.605785751E1,5.113067322E0,1.837327956E1
2.666262708E0,7.461533661E0,-1.594933319E1,2.302511902E0,1.775830158E1
2.676302708E0,6.358477478E0,-1.594918350E1,2.848576355E-1,1.717229845E1
2.686373708E0,3.483705597E0,-1.770308624E1,-5.420228577E-1,1.805074115E1
2.696444708E0,4.505630493E-2,-2.094040421E1,-6.242019653E-1,2.094975385E1
2.706484708E0,-2.516417084E0,-2.416694458E1,-1.353036346E0,2.433524754E1
2.716555708E0,-4.213138733E0,-2.609643219E1,-2.249671783E0,2.652989510E1
2.726647458E0,-5.089865570E0,-2.580708389E1,-3.799848175E0,2.657726767E1
2.736687458E0,-5.106630707E0,-2.452006027E1,-5.247787170E0,2.559004305E1
2.746758458E0,-2.966082001E0,-2.251468048E1,-4.480931854E0,2.314707821E1
2.756829458E0,1.199006653E-1,-2.010469208E1,-2.823728027E0,2.030237572E1
2.766869458E0,2.029928741E0,-1.775682449E1,-2.229314117E0,1.801097633E1
2.776940458E0,3.683689728E0,-1.559801376E1,-8.999285889E-1,1.605233549E1
2.787011458E0,5.228028259E0,-1.412762146E1,7.461982727E-1,1.508239966E1
2.797051458E0,6.024671631E0,-1.281679733E1,1.954186249E0,1.429635639E1
2.807122458E0,6.100563812E0,-1.137978561E1,3.017425232E0,1.325976072E1
2.817193458E0,6.012397156E0,-9.661359100E0,3.322490845E0,1.185452338E1
2.827263458E0,5.314698029E0,-7.415579224E0,3.016078033E0,9.609035178E0
2.837304458E0,3.761527863E0,-5.282814331E0,3.221600647E0,7.241265763E0
2.847374458E0,1.816772003E0,-3.774999847E0,3.166814575E0,5.251666299E0
2.857445458E0,-3.053649902E-1,-2.471959534E0,1.956431580E0,3.167247423E0
2.867486458E0,-2.311044159E0,-1.041534119E0,4.468208313E-1,2.573978881E0
2.877556458E0,-3.801644440E0,1.246158600E0,-1.292262726E0,4.204206781E0
2.887627458E0,-4.843178558E0,3.957320709E0,-3.197201385E0,7.024162757E0
2.897667458E0,-5.644611969E0,6.481371918E0,-4.514911194E0,9.708462767E0
2.907738458E0,-5.996380463E0,8.145311737E0,-4.081262970E0,1.090685057E1
2.917809458E0,-4.768334198E0,8.017627258E0,-1.436712341E0,9.438405598E0
2.927849458E0,-1.826501770E0,6.320306854E0,9.870474243E-1,6.652567179E0
2.937920458E0,9.431886292E-1,4.471950531E0,1.515149231E0,4.814937542E0
2.947991458E0,3.121159515E0,2.596799927E0,1.622326355E0,4.372293378E0
2.958031458E0,4.635410614E0,6.541397095E-1,1.512005768E0,4.919460515E0
2.968102458E0,5.422623596E0,-1.764380951E0,1.103954315E0,5.808321783E0
2.978173458E0,5.675298157E0,-4.556824036E0,-6.457571411E-1,7.306891045E0
2.988244458E0,5.623954926E0,-7.197482758E0,-4.467010803E0,1.016793059E1
2.998284458E0,5.167853394E0,-8.593330078E0,-9.564510498E0,1.385755720E1
3.008355458E0,4.473597107E0,-7.881260834E0,-1.487217316E1,1.741576521E1
3.018425458E0,3.500620422E0,-5.385650482E0,-1.549562668E1,1.677420700E1
3.028466458E0,1.279389496E0,-1.872456207E0,-6.869065704E0,7.233739930E0
3.038537458E0,-2.471510468E0,2.176773376E0,4.979095917E0,5.969765697E0
3.048607458E0,-7.050338745E0,5.315147095E0,1.126452530E1,1.431249787E1
3.058648458E0,-9.479487305E0,1.397942963E0,9.468709717E0,1.347113164E1
3.068718458E0,-6.408174133E0,-1.373169479E1,4.627327423E0,1.584412499E1
3.078789458E0,-2.127675476E0,-3.361948792E1,-1.589604401E1,3.724890852E1
3.088830458E0,-1.622326355E0,-4.941673737E1,-2.187655746E1,5.406689968E1
3.098900458E0,-3.003055115E0,-3.828977600E1,6.568041687E0,3.896491316E1
3.108971458E0,-3.663930817E0,-1.993614258E1,1.262534546E1,2.388040029E1
3.119011458E0,-2.308798828E0,-6.645879822E0,8.056396637E0,1.069597108E1
3.129082458E0,-2.038460999E0,4.341272278E0,5.573210449E0,7.352730305E0
3.139153458E0,-2.411335602E0,1.024080414E1,4.771627350E0,1.155236064E1
3.149193458E0,-2.259551239E0,1.084973785E1,4.565955048E0,1.198625583E1
3.159264458E0,-6.735992432E-1,5.903872833E0,3.157084808E0,6.728791486E0
3.169335458E0,9.548643494E-1,-3.511547699E0,3.107986908E0,4.785636404E0
3.179406458E0,2.126627655E0,-1.048584457E1,3.413950653E0,1.123078540E1
3.189446458E0,3.039579163E0,-1.671334442E1,4.951403503E0,1.769438668E1
3.199517458E0,4.359234924E0,-2.416754333E1,7.860005035E0,2.578473888E1
3.209588458E0,6.790479126E0,-3.080429214E1,1.028151947E1,3.317717082E1
3.219628458E0,1.022957748E1,-3.481355484E1,8.542286224E0,3.727731898E1
3.229699458E0,1.452549408E1,-3.594954254E1,3.307521973E0,3.891399862E1
3.239769458E0,1.687425980E1,-3.173086533E1,-9.912387085E-1,3.595234363E1
3.249810458E0,1.480990265E1,-2.443024704E1,-2.255809021E0,2.865761437E1
3.259881458E0,1.061457687E1,-1.960458206E1,-4.112996979E0,2.266992775E1
3.269951458E0,5.510041809E0,-1.713576599E1,-5.950875092E0,1.895805769E1
3.279992458E0,5.098397827E-1,-1.567959412E1,-7.512128448E0,1.739372537E1
3.290062458E0,-3.496279449E0,-1.456665848E1,-9.023236084E0,1.748800442E1
3.300133458E0,-6.445147247E0,-1.389081390E1,-1.018347336E1,1.839015398E1
3.310174458E0,-8.347092133E0,-1.292232788E1,-1.128413452E1,1.907857953E1
3.320244458E0,-7.883655853E0,-1.071681427E1,-1.290047333E1,1.853171200E1
3.330315458E0,-5.332510986E0,-8.018675079E0,-1.418585037E1,1.714564593E1
3.340386458E0,-2.614313507E0,-5.778583374E0,-1.533845352E1,1.659803655E1
3.350426458E0,-1.297801208E-1,-3.665876770E0,-1.491318787E1,1.535769083E1
3.360497458E0,2.200124817E0,-1.451531525E0,-1.183828217E1,1.212816629E1
3.370568458E0,4.147126007E0,3.152444458E-1,-6.233936462E0,7.493997398E0
3.380608458E0,5.113666077E0,1.286574554E0,6.212081909E-2,5.273396801E0
3.390679458E0,4.855752411E0,1.717079315E0,3.088078308E0,6.005241085E0
3.400750458E0,3.221450958E0,1.462159424E0,2.039209442E0,4.083384822E0
3.410790458E0,8.958869934E-1,5.601351929E-1,1.004860382E0,1.458118420E0
3.420861458E0,-1.028660889E0,-4.650828552E-1,1.255588989E0,1.688475347E0
3.430932458E0,-2.021396484E0,-1.081650696E0,5.330415344E-1,2.353751315E0
3.440972458E0,-2.220632172E0,-2.026036835E0,-1.149908752E0,3.218434812E0
3.451043458E0,-1.948797455E0,-4.219725037E0,-2.429298248E0,5.244557263E0
3.461113458E0,-1.090033264E0,-7.701035614E0,-2.957699432E0,8.321184289E0
3.471154458E0,2.932402039E-1,-1.269929169E1,-3.079546051E0,1.307063897E1
3.481225458E0,2.083217926E0,-1.889969788E1,-3.014132080E0,1.925158095E1
3.491295458E0,4.247118073E0,-2.535397614E1,-1.791324921E0,2.576957436E1
3.501366458E0,5.719007263E0,-2.835733063E1,1.228794708E0,2.895436376E1
3.511406458E0,6.306685181E0,-2.659250061E1,2.075134735E0,2.740878602E1
3.521477458E0,6.613397369E0,-2.478411118E1,2.125430145E0,2.573920443E1
3.531548458E0,5.790109406E0,-2.436962311E1,2.602188721E0,2.518283708E1
3.541588458E0,3.343746643E0,-2.468965759E1,2.167941742E0,2.500919441E1
3.551659458E0,1.421893158E0,-2.508378799E1,6.920109558E-1,2.513358469E1
3.561730458E0,5.213658142E-1,-2.533242096E1,-3.119512939E-1,2.533970575E1
3.571770458E0,-1.631607056E-1,-2.569212296E1,-9.437873840E-1,2.570996962E1
3.581841458E0,-1.222956848E-1,-2.577609833E1,-1.705553284E0,2.583275272E1
3.591912458E0,7.068301392E-1,-2.504247391E1,-1.973645782E0,2.513006936E1
3.601952458E0,2.265389099E0,-2.319875793E1,-1.402583313E0,2.335126544E1
3.612023458E0,3.361858978E0,-2.040631485E1,-8.361611938E-1,2.069828367E1
3.622094458E0,3.631598053E0,-1.684492081E1,-8.472381592E-2,1.723215133E1
3.632134458E0,3.868555298E0,-1.288670197E1,2.026635590E0,1.360661822E1
3.642205458E0,4.459226990E0,-9.167985077E0,4.117487640E0,1.099501524E1
3.652276458E0,5.349126434E0,-6.016887817E0,5.307962036E0,9.643160975E0
3.662346458E0,5.620811462E0,-3.691772919E0,5.822292480E0,8.895043480E0
3.672387458E0,4.939428406E0,-1.683099976E0,4.497098236E0,6.888735083E0
3.682457458E0,3.300785980E0,3.089575195E-1,2.794838104E0,4.336099960E0
3.692528458E0,1.081800385E0,3.008294220E0,1.480720825E0,3.523160562E0
3.702569458E0,-1.446591797E0,6.639892273E0,2.264790344E-1,6.799418356E0
3.712639458E0,-4.322561188E0,1.072878937E1,-7.463479614E-1,1.159087968E1
3.722710458E0,-6.692133636E0,1.395907196E1,4.939727783E-3,1.548032193E1
3.732743625E0,-7.070397034E0,1.457234665E1,3.254981232E0,1.652085663E1
3.742814625E0,-4.490661621E0,1.126587250E1,5.449717255E0,1.329606495E1
3.752885625E0,-1.527872772E0,6.893015900E0,5.179978180E0,8.756725264E0
3.762925625E0,-3.140469360E-1,3.180286560E0,4.538262634E0,5.550556352E0
3.772996625E0,6.541397095E-2,-1.646575928E-1,3.804488525E0,3.808611827E0
3.783067625E0,3.899391174E-1,-3.049308929E0,2.383493500E0,3.889907290E0
3.793107625E0,7.985893250E-1,-5.450615387E0,-6.152206421E-2,5.509150386E0
3.803178625E0,1.532662811E0,-7.910599823E0,-3.679797821E0,8.858191512E0
3.813249625E0,2.927312622E0,-9.955647125E0,-9.964478760E0,1.438662246E1
3.823289625E0,4.508923645E0,-1.049557434E1,-1.911959061E1,2.227209506E1
3.833360625E0,5.085075531E0,-8.908873901E0,-2.378688492E1,2.590447686E1
3.843431625E0,3.617377625E0,-5.583688660E0,-1.951476883E1,2.061769149E1
3.853501625E0,1.115180969E-1,-1.666334839E0,-6.917265472E0,7.116015015E0
3.863542625E0,-5.594166870E0,2.490520935E0,9.339678040E0,1.116812354E1
3.873613625E0,-1.208481949E1,2.191442871E0,1.375744125E1,1.844213854E1
3.883683625E0,-1.292966263E1,-1.249391876E1,7.989186401E0,1.967488961E1
3.893724625E0,-9.134903870E0,-3.215732849E1,2.363285522E0,3.351306257E1
3.903794625E0,-8.277786255E0,-4.548591156E1,-4.798870697E0,4.648138397E1
3.913865625E0,-7.516319733E0,-3.768653046E1,4.576283569E0,3.870028439E1
3.923906625E0,-3.652704163E0,-1.955802887E1,1.048344955E1,2.248914084E1
3.933976625E0,-8.466394043E-1,-7.014563141E0,1.006207581E1,1.229496905E1
3.944047625E0,8.159532166E-1,3.515289917E0,1.065708847E1,1.125151445E1
3.954087625E0,1.902693329E0,1.012045441E1,1.021131546E1,1.450223440E1
3.964158625E0,3.492237854E0,1.025682083E1,7.185357971E0,1.300105642E1
3.974229625E0,6.056705017E0,1.826950836E0,7.915090485E0,1.013262466E1
3.984269625E0,7.957003326E0,-8.907826080E0,1.036384827E1,1.581368453E1
3.994340625E0,9.950857086E0,-1.780352737E1,1.033705399E1,2.286569109E1
4.004411625E0,1.195623688E1,-2.744512756E1,7.641908569E0,3.089636538E1
4.014482625E0,1.347048798E1,-3.664050568E1,2.468067627E0,3.911613555E1
4.024522625E0,1.367017273E1,-3.997422318E1,3.695814514E-1,4.224865360E1
4.034593625E0,1.344848373E1,-3.512415894E1,-1.957778778E0,3.766166690E1
4.044664625E0,1.190863586E1,-2.540861252E1,-3.921395416E0,2.833355855E1
4.054704625E0,7.487280121E0,-1.895149017E1,-5.105433197E0,2.100675585E1
4.064775625E0,2.193987579E0,-1.591415634E1,-7.687413940E0,1.780927530E1
4.074845625E0,-2.718047791E0,-1.409543839E1,-9.589508514E0,1.726348286E1
4.084886625E0,-6.029012604E0,-1.288146286E1,-9.935439148E0,1.734917950E1
4.094957625E0,-7.601941681E0,-1.185175415E1,-1.025981461E1,1.742175047E1
4.105027625E0,-6.922654266E0,-1.052655991E1,-1.007030869E1,1.612894053E1
4.115068625E0,-4.086053009E0,-8.704099731E0,-9.915979614E0,1.381245210E1
4.125138625E0,-9.256750488E-1,-6.866071930E0,-9.914183350E0,1.209507542E1
4.135209625E0,1.791474609E0,-4.986430664E0,-1.032103729E1,1.160162415E1
4.145250625E0,4.014801178E0,-2.941982117E0,-9.933044128E0,1.111032191E1
4.155320625E0,6.278244324E0,-1.055455170E0,-8.399183807E0,1.053928964E1
4.165391625E0,8.976533203E0,2.098635864E-1,-7.048243103E0,1.141489912E1
4.175462625E0,1.069256470E1,6.613247681E-1,-6.395450592E0,1.247678158E1
4.185502625E0,9.881850586E0,-9.116043091E-2,-3.870201874E0,1.061309304E1
4.195573625E0,5.837111664E0,-1.604812775E0,-6.586303711E-3,6.053704651E0
4.205644625E0,8.978329468E-1,-3.006947021E0,2.400707703E0,3.951105145E0
4.215684625E0,-2.501448212E0,-3.187022552E0,3.172802124E0,5.145972136E0
4.225755625E0,-4.202959900E0,-2.152523804E0,2.100132751E0,5.168054588E0
4.235826625E0,-4.894970856E0,-1.858834534E0,3.966751099E-2,5.236179811E0
4.245866625E0,-4.964426422E0,-4.001927948E0,-6.224057007E-1,6.406898302E0
4.255937625E0,-4.187242584E0,-8.589587860E0,-4.532574463E-1,9.566580496E0
4.266008625E0,-2.648891602E0,-1.439406738E1,-1.433119812E0,1.470576876E1
4.276048625E0,-7.201524353E-1,-2.046798660E1,-3.590882721E0,2.079306456E1
4.286119625E0,1.718875580E0,-2.649430481E1,-3.013084259E0,2.672043034E1
4.296189625E0,3.829636230E0,-2.985960663E1,-3.956272888E-1,3.010678898E1
4.306230625E0,4.371659088E0,-2.931309311E1,-2.993774414E-1,2.963879987E1
4.316301625E0,4.028422852E0,-2.854114838E1,-5.349874878E-1,2.882900541E1
4.326371625E0,2.613265686E0,-2.884516617E1,-1.101409607E0,2.898423489E1
4.336442625E0,1.906884613E0,-2.947266129E1,-1.190773773E0,2.955827996E1
4.346482625E0,1.968107300E0,-2.987532394E1,-1.892065430E-1,2.994067845E1
4.356553625E0,1.384920044E0,-3.025119232E1,1.106199646E0,3.030307440E1
4.366624625E0,4.575984192E-1,-3.068558899E1,1.530417480E0,3.072713696E1
4.376664625E0,1.153950348E0,-2.980167709E1,7.141648865E-1,2.983255923E1
4.386735625E0,3.210823059E0,-2.659953598E1,2.915936279E-1,2.679421068E1
4.396806625E0,5.411846008E0,-2.169767944E1,1.078357544E0,2.238839488E1
4.406846625E0,6.560257874E0,-1.615725082E1,2.214045868E0,1.757827456E1
4.416917625E0,7.421866150E0,-1.065289719E1,4.451443176E0,1.372529278E1
4.426988625E0,8.154442749E0,-5.919290771E0,5.403613129E0,1.143380840E1
4.437028625E0,8.187673645E0,-2.292482758E0,6.024372253E0,1.042048646E1
4.447099625E0,7.443121948E0,1.526824951E-1,6.982529755E0,1.020681625E1
4.457170625E0,5.123695221E0,1.721120911E0,6.075565796E0,8.131851551E0
4.467210625E0,2.400408325E0,2.833308105E0,4.388573914E0,5.748841270E0
4.477281625E0,1.856140137E-1,5.056484985E0,2.631827087E0,5.703420622E0
4.487352625E0,-2.539768524E0,8.818312225E0,8.518785095E-1,9.216222201E0
4.497392625E0,-5.962550812E0,1.282098862E1,-4.773573303E-1,1.414770763E1
4.507463625E0,-8.776698761E0,1.564067505E1,4.938230896E-1,1.794171169E1
4.517533625E0,-1.011027557E1,1.506437347E1,3.694018250E0,1.851482625E1
4.527604625E0,-7.399412842E0,9.725874939E0,6.592590637E0,1.388546740E1
4.537645625E0,-2.335144043E0,5.100044403E0,6.197562103E0,8.359014693E0
4.547715625E0,6.568341064E-1,2.900218964E0,5.103636932E0,5.906759773E0
4.557786625E0,1.739832001E0,5.676196289E-1,4.580325165E0,4.932401651E0
4.567826625E0,2.074386292E0,-1.861229553E0,3.447031860E0,4.432751130E0
4.577897625E0,2.411634979E0,-4.052223358E0,5.631289673E-1,4.749064292E0
4.587968625E0,2.953358459E0,-6.352489929E0,-4.554129639E0,8.355629914E0
4.598008625E0,4.047433319E0,-8.666677551E0,-1.327589264E1,1.636283416E1
4.608079625E0,4.569098511E0,-9.243727570E0,-2.404000854E1,2.615808042E1
4.618150625E0,2.877316589E0,-6.212980042E0,-2.569571548E1,2.659228960E1
4.628190625E0,-4.011657715E-2,-2.241139526E0,-1.816382813E1,1.830161107E1
4.638261625E0,-5.475763092E0,1.520538025E0,-2.534828796E0,6.222650107E0
4.648332625E0,-1.333217560E1,4.036655731E0,8.816216583E0,1.648536231E1
4.658372625E0,-1.533261566E1,-7.238048401E0,6.164331207E0,1.804099296E1
4.668443625E0,-8.927435303E0,-2.479144592E1,1.775906982E0,2.640963342E1
4.678514625E0,-6.966213684E0,-3.736859161E1,-6.194119263E-1,3.801740974E1
4.688584625E0,-9.178313599E0,-3.804892685E1,1.049572403E1,4.052311066E1
4.698625625E0,-9.046288147E0,-2.763807632E1,1.550909866E1,3.295801471E1
4.708696625E0,-3.719465332E0,-1.461396011E1,1.457519073E1,2.097232552E1
4.718766625E0,1.090931396E0,-3.083887024E0,1.673474991E1,1.705146167E1
4.728845375E0,4.389921112E0,5.458249512E0,1.701990692E1,1.840492126E1
4.738915375E0,7.300917664E0,7.411088562E0,1.277159134E1,1.647243691E1
4.748986375E0,9.927655334E0,4.445755005E-1,8.472830658E0,1.305928203E1
4.759027375E0,1.146900009E1,-1.015488281E1,5.536836090E0,1.628852854E1
4.769097375E0,1.249571503E1,-1.975861176E1,2.183060303E0,2.348002097E1
4.779168375E0,1.218945190E1,-2.887570267E1,2.020797729E-1,3.134373587E1
4.789208375E0,1.135897888E1,-3.570704681E1,2.967429199E0,3.758756749E1
4.799279375E0,1.069091812E1,-3.863121597E1,6.509962463E0,4.060844973E1
4.809350375E0,1.183783310E1,-3.626239197E1,4.688550110E0,3.843277073E1
4.819390375E0,1.225785965E1,-2.873574371E1,-2.872676239E0,3.137276460E1
4.829461375E0,9.094188538E0,-2.264715500E1,-8.448581085E0,2.582588657E1
4.839532375E0,3.811673584E0,-1.944890579E1,-1.045021866E1,2.240526416E1
4.849603375E0,-1.378782806E0,-1.683863388E1,-1.159249329E1,2.048966895E1
4.859643375E0,-5.445076904E0,-1.521376282E1,-1.088940536E1,1.948554825E1
4.869714375E0,-6.973398743E0,-1.360999786E1,-9.460476837E0,1.798223996E1
4.879785375E0,-6.655459900E0,-1.178559174E1,-8.502469025E0,1.598397005E1
4.889825375E0,-4.958588562E0,-1.023586441E1,-7.883805542E0,1.383889123E1
4.899896375E0,-2.205812988E0,-8.537346497E0,-9.319020996E0,1.282949915E1
4.909966375E0,6.668632507E-1,-6.617139587E0,-1.305555084E1,1.465191628E1
4.920007375E0,3.795207825E0,-4.477039948E0,-1.672307419E1,1.772311201E1
4.930078375E0,6.953340454E0,-2.220033417E0,-1.665855835E1,1.818749730E1
4.940148375E0,9.180259552E0,-2.312690735E-1,-1.270677612E1,1.567778078E1
4.950189375E0,1.022239243E1,1.123413849E0,-8.703650665E0,1.347267236E1
4.960259375E0,1.012240036E1,1.155896301E0,-5.041665802E0,1.136738666E1
4.970330375E0,8.803642731E0,5.523513794E-1,-1.312919769E0,8.918126244E0
4.980371375E0,6.602320404E0,-2.874023438E-1,5.815406799E-1,6.634110670E0
4.990441375E0,4.253704376E0,-1.762884064E0,3.800596619E-1,4.620195503E0
5.000512375E0,2.018402710E0,-3.224295044E0,-4.899311829E-1,3.835369682E0
5.010583375E0,-3.808081055E-1,-3.772455139E0,-7.863148499E-1,3.872302110E0
5.020623375E0,-2.837948456E0,-3.132685547E0,9.490264893E-2,4.228081916E0
5.030694375E0,-4.682712250E0,-2.888992310E0,2.582579498E0,6.078140130E0
5.040765375E0,-4.521946564E0,-5.054239655E0,5.290448456E0,8.601289675E0
5.050805375E0,-2.087409210E0,-1.008961853E1,5.351371765E0,1.161011882E1
5.060876375E0,7.816744995E-1,-1.650108582E1,2.552492065E0,1.671562335E1
5.070947375E0,3.395538940E0,-2.357821884E1,-1.344953156E0,2.385940040E1
5.080987375E0,6.151457977E0,-2.996319122E1,-2.837649078E0,3.071946477E1
5.091058375E0,6.477180634E0,-3.362457733E1,-4.559069366E0,3.454491545E1
5.101129375E0,4.205803986E0,-3.533671692E1,-5.034780121E0,3.594052533E1
5.111169375E0,1.170266418E0,-3.690126343E1,-4.919070740E0,3.724607393E1
5.121240375E0,-1.157093811E0,-3.834935211E1,-4.874164124E0,3.867517485E1
5.131310375E0,-9.430389404E-1,-3.700320145E1,-3.476670227E0,3.717813169E1
5.141351375E0,-6.060896301E-1,-3.375780029E1,-6.965016174E-1,3.377042404E1
5.151422375E0,-4.185296631E-1,-3.055266541E1,1.429976349E0,3.058897453E1
5.161492375E0,5.593867493E-1,-2.797816910E1,1.186133423E0,2.800888738E1
5.171533375E0,2.769989777E0,-2.466750366E1,1.018182678E0,2.484341515E1
5.181603375E0,5.414989471E0,-2.056273956E1,2.699785767E0,2.143448652E1
5.191674375E0,6.901099091E0,-1.622910141E1,5.827980652E0,1.857348270E1
5.201745375E0,7.961344299E0,-1.144475052E1,7.753426666E0,1.595245882E1
5.211785375E0,8.636889496E0,-7.304959259E0,8.346044312E0,1.405755119E1
5.221856375E0,8.265362091E0,-4.057462463E0,9.659712524E0,1.334500874E1
5.231927375E0,6.882238312E0,-1.290316772E0,9.821825409E0,1.206227076E1
5.241967375E0,4.691992950E0,1.188678131E0,9.082812195E0,1.029199839E1
5.252038375E0,1.890718231E0,3.208727417E0,8.225095825E0,9.029005948E0
5.262109375E0,-1.354682922E0,6.284531250E0,6.475234680E0,9.124645912E0
5.272149375E0,-5.348677368E0,1.122919876E1,3.733087006E0,1.298611539E1
5.282220375E0,-9.530680847E0,1.544742691E1,2.024240570E0,1.826347244E1
5.292291375E0,-1.302351746E1,1.756911484E1,2.242037659E0,2.198437027E1
5.302331375E0,-1.408466080E1,1.632400406E1,3.890409851E0,2.190858432E1
5.312402375E0,-9.012009430E0,9.295070801E0,6.013744354E0,1.427514540E1
5.322473375E0,-2.139500885E0,4.085005188E0,6.274202728E0,7.786549383E0
5.332513375E0,1.667232971E0,2.467169495E0,5.495072937E0,6.249993414E0
5.342584375E0,2.878514099E0,6.132746887E-1,5.779930573E0,6.486104122E0
5.352654375E0,2.547851715E0,-1.562600555E0,5.231471100E0,6.025077487E0
5.362725375E0,2.413131866E0,-3.423680420E0,2.559527435E0,4.908764989E0
5.372766375E0,2.852767639E0,-5.870192871E0,-3.523522797E0,7.417052005E0
5.382836375E0,4.117637329E0,-1.014305740E1,-1.426458664E1,1.798096167E1
5.392907375E0,4.559668121E0,-1.387928787E1,-2.370904678E1,2.784859251E1
5.402947375E0,2.174677734E0,-1.172616531E1,-2.421334808E1,2.699108004E1
5.413018375E0,-3.146157532E0,-8.517437897E0,-1.697350342E1,1.924954217E1
5.423089375E0,-8.731343079E0,-7.328161011E0,-4.727768555E0,1.234058715E1
5.433129375E0,-1.240395584E1,-6.684349823E0,4.756808167E0,1.487164675E1
5.443200375E0,-7.128476257E0,-1.715851868E1,4.768483887E0,1.918250181E1
5.453271375E0,-1.302142181E0,-3.015075119E1,6.253096619E0,3.081987328E1
5.463311375E0,-1.388811951E0,-3.192411346E1,1.633238663E1,3.588627415E1
5.473382375E0,-3.297792206E0,-2.513318527E1,1.936537949E1,3.189937865E1
5.483453375E0,-3.894002380E0,-1.508098892E1,1.592912521E1,2.227861108E1
5.493493375E0,-2.686613159E0,-4.895868988E0,1.292352539E1,1.407852734E1
5.503564375E0,-1.305585022E0,4.383035431E0,1.246457977E1,1.327709685E1
5.513635375E0,-3.055146790E-1,9.389374695E0,9.123228149E0,1.309530405E1
5.523706375E0,2.264341278E0,6.889573059E0,4.359384613E0,8.461541973E0
5.533746375E0,5.782924347E0,-2.407144318E0,4.355492706E0,7.629342992E0
5.543817375E0,7.487280121E0,-1.206101898E1,5.888005829E0,1.536867448E1
5.553887375E0,8.699160004E0,-2.112257538E1,5.880820770E0,2.358861226E1
5.563928375E0,1.018497025E1,-3.119408157E1,5.167703705E0,3.321911356E1
5.573998375E0,1.100451599E1,-4.099764496E1,4.016896820E0,4.263850049E1
5.584069375E0,1.206491089E1,-4.736106216E1,7.081473999E0,4.938400103E1
5.594110375E0,1.471949066E1,-4.488820450E1,4.829257507E0,4.748616679E1
5.604180375E0,1.719279739E1,-3.419369385E1,-1.713935852E-1,3.827310226E1
5.614251375E0,1.511541733E1,-2.502780441E1,-6.692433014E0,2.999425769E1
5.624291375E0,8.085585938E0,-1.957374619E1,-1.003348526E1,2.343456989E1
5.634362375E0,5.658233643E-1,-1.698083817E1,-9.540410614E0,1.948559610E1
5.644433375E0,-3.950435028E0,-1.553813828E1,-8.714727631E0,1.824790825E1
5.654473375E0,-5.401966553E0,-1.395173721E1,-8.747060394E0,1.733041487E1
5.664544375E0,-5.216053162E0,-1.226743973E1,-9.295968933E0,1.625153305E1
5.674615375E0,-4.107159119E0,-1.053778656E1,-9.966724091E0,1.507478991E1
5.684686375E0,-2.402653656E0,-8.939709778E0,-1.237551498E1,1.545459565E1
5.694726375E0,-3.936813354E-2,-8.103249207E0,-1.702155350E1,1.885198878E1
5.704797375E0,2.763553162E0,-7.590565338E0,-2.088801315E1,2.239560229E1
5.714868375E0,6.487509155E0,-5.875731354E0,-2.083187988E1,2.259599994E1
5.724908375E0,1.029978149E1,-2.964136047E0,-1.900747375E1,2.182099127E1
5.734983500E0,1.193677734E1,-6.047424316E-1,-1.574770248E1,1.976973698E1
5.745053500E0,1.108489883E1,-2.993774414E-3,-5.661377106E0,1.244693464E1
5.755094500E0,8.990903320E0,3.574566650E-1,5.590274963E0,1.059317195E1
5.765165500E0,6.280938721E0,1.176852722E0,8.267757111E0,1.044944885E1
5.775235500E0,3.585793304E0,1.847907257E0,4.212689667E0,5.832617687E0
5.785276500E0,7.424560547E-1,1.026415558E0,-3.376977539E-1,1.311033815E0
5.795346500E0,-1.953138428E0,-1.392404480E0,-2.664908295E0,3.585425522E0
5.805417500E0,-4.278552704E0,-2.831362152E0,-1.676663361E0,5.397575836E0
5.815458500E0,-5.373226318E0,-2.221530304E0,1.213975525E0,5.939738591E0
5.825528500E0,-4.606820068E0,-1.612596588E0,2.906505890E0,5.680760106E0
5.835599500E0,-2.411185913E0,-3.354374542E0,3.098855896E0,5.164160526E0
5.845639500E0,7.018904114E-1,-8.058342590E0,2.566862183E0,8.486360640E0
5.855710500E0,3.576362915E0,-1.529474442E1,5.748046875E-1,1.571782360E1
5.865781500E0,6.223458252E0,-2.436752747E1,-2.351460114E0,2.525939809E1
5.875852500E0,9.305249634E0,-3.319796448E1,-2.741997986E0,3.458628441E1
5.885892500E0,9.658515015E0,-3.730721924E1,-2.840044098E0,3.864170506E1
5.895963500E0,7.050039368E0,-3.867492508E1,-3.004252625E0,3.942687432E1
5.906034500E0,4.364324341E0,-4.080933655E1,-5.375321960E0,4.139255202E1
5.916074500E0,2.304607544E0,-4.287010117E1,-9.883646851E0,4.405500272E1
5.926145500E0,1.635199585E0,-4.318190277E1,-9.596094818E0,4.426551299E1
5.936216500E0,2.887495422E-1,-4.188260468E1,-5.949677582E0,4.230407326E1
5.946256500E0,-3.978726196E-1,-3.851400970E1,-2.198328552E0,3.857874926E1
5.956327500E0,7.044351196E-1,-3.256912216E1,6.080355835E-1,3.258241327E1
5.966397500E0,3.843856659E0,-2.539319458E1,3.748205566E0,2.595454893E1
5.976438500E0,7.143594818E0,-1.841530518E1,7.852221222E0,2.125586483E1
5.986509500E0,8.895850983E0,-1.315105225E1,1.100721039E1,1.931955021E1
5.996579500E0,1.015428406E1,-9.165739746E0,1.164308807E1,1.796334517E1
6.006620500E0,1.004111938E1,-6.008056183E0,1.223091568E1,1.692678694E1
6.016690500E0,8.498577118E0,-3.054847412E0,1.254556137E1,1.545797580E1
6.026761500E0,5.806724854E0,8.846603394E-2,1.290451492E1,1.415105597E1
6.036832500E0,1.954635315E0,2.918181610E0,1.283446060E1,1.330638050E1
6.046872500E0,-2.330354004E0,6.387666779E0,1.163275955E1,1.347419502E1
6.056943500E0,-6.610553284E0,1.151390671E1,8.802145844E0,1.592944550E1
6.067014500E0,-1.096859070E1,1.611399078E1,5.479954376E0,2.024847107E1
6.077054500E0,-1.486723343E1,1.767434601E1,4.907395020E0,2.361143076E1
6.087125500E0,-1.734233643E1,1.686497910E1,5.342839508E0,2.477357638E1
6.097196500E0,-1.539578430E1,1.300345917E1,5.903124390E0,2.099921432E1
6.107236500E0,-8.042026520E0,5.994135132E0,7.549101563E0,1.255359633E1
6.117307500E0,-1.524878998E0,3.058739319E0,6.805447998E0,7.615462207E0
6.127378500E0,3.071013794E0,2.627486115E0,5.367238770E0,6.718784192E0
6.137418500E0,4.461322632E0,1.323996735E0,5.795198822E0,7.432408517E0
6.147489500E0,3.334915009E0,-6.460565186E-1,5.450166321E0,6.422099350E0
6.157560500E0,2.161505127E0,-2.919528809E0,4.434528351E0,5.732433565E0
6.167600500E0,1.824705505E0,-5.320086823E0,1.755100250E0,5.891795216E0
6.177671500E0,2.236349487E0,-8.720415802E0,-4.353846130E0,1.000014434E1
6.187741500E0,3.897145844E0,-1.391521317E1,-1.379890503E1,1.998075782E1
6.197812500E0,5.911806335E0,-1.776715302E1,-2.374616959E1,3.024072999E1
6.207853500E0,4.731810150E0,-1.535671555E1,-2.691792389E1,3.134953534E1
6.217923500E0,4.427792358E-1,-1.022912842E1,-1.993299911E1,2.240882807E1
6.227994500E0,-4.241130524E0,-5.104235687E0,-5.714366913E0,8.757533859E0
6.238034500E0,-1.070079758E1,-6.593788147E-1,4.187841339E0,1.150998976E1
6.248105500E0,-1.493623993E1,-1.152812714E1,1.987866211E-1,1.886871735E1
6.258176500E0,-6.445746002E0,-2.789598999E1,9.891580353E0,3.029153778E1
6.268216500E0,-2.828218689E0,-3.258214508E1,1.745295639E1,3.707021292E1
6.278287500E0,-4.027524719E0,-2.760155228E1,1.810589859E1,3.325492756E1
6.288358500E0,-3.685036926E0,-1.710747482E1,1.624062744E1,2.387473920E1
6.298398500E0,-1.918111267E0,-6.737339630E0,1.503877670E1,1.659022908E1
6.308469500E0,-7.256909180E-1,1.744472351E0,1.553110291E1,1.564560541E1
6.318540500E0,-3.743714905E-1,7.006180573E0,1.183843185E1,1.376136581E1
6.328580500E0,1.231040039E0,7.264992371E0,6.654262390E0,9.928483352E0
6.338651500E0,4.579427032E0,-1.740879822E-1,4.665797424E0,6.539963622E0
6.348722500E0,7.083869019E0,-1.035396881E1,5.868396606E0,1.385005232E1
6.358793500E0,8.468639374E0,-2.056528427E1,3.567082214E0,2.252493830E1
6.368833500E0,1.005099884E1,-3.203682907E1,4.505630493E-1,3.357951759E1
6.378904500E0,1.226264969E1,-4.275603836E1,2.010020142E0,4.452517911E1
6.388974500E0,1.515254013E1,-4.917648697E1,6.369105377E0,5.185066872E1
6.399015500E0,1.858460312E1,-4.713593033E1,3.026556244E0,5.075769344E1
6.409085500E0,1.893861694E1,-3.586871063E1,-2.062560883E0,4.061391106E1
6.419156500E0,1.381312546E1,-2.577295486E1,-8.060288544E0,3.033176369E1
6.429197500E0,5.189408569E0,-1.955713074E1,-1.051727921E1,2.280404538E1
6.439267500E0,-2.217339020E0,-1.544742691E1,-1.045635590E1,1.878496657E1
6.449338500E0,-5.960305481E0,-1.294552963E1,-9.206604767E0,1.696683678E1
6.459378500E0,-6.741530914E0,-1.103729782E1,-7.643405457E0,1.502304327E1
6.469449500E0,-5.870941315E0,-9.476643219E0,-6.714736633E0,1.301393125E1
6.479520500E0,-4.026776276E0,-7.799830170E0,-7.734715576E0,1.169949157E1
6.489560500E0,-1.404080200E0,-6.738387451E0,-1.092727661E1,1.291443691E1
6.499631500E0,1.672472076E0,-6.358327789E0,-1.466994370E1,1.607584347E1
6.509702500E0,5.637127533E0,-5.478457489E0,-1.784514084E1,1.949973730E1
6.519742500E0,9.873018951E0,-3.525768127E0,-2.019360718E1,2.275278697E1
6.529813500E0,1.278775772E1,-1.858984222E0,-2.132824768E1,2.493745615E1
6.539884500E0,1.370624771E1,-1.592089233E0,-1.731584152E1,2.214123624E1
6.549955500E0,1.243898300E1,-2.003284149E0,-5.666915588E0,1.381504172E1
6.559995500E0,9.259893951E0,-1.930086365E0,6.486461334E0,1.146930905E1
6.570066500E0,5.284909973E0,-1.390159149E0,1.062221100E1,1.194546702E1
6.580137500E0,1.271605682E0,-3.873944092E-1,7.745343475E0,7.858587722E0
6.590177500E0,-2.763553162E0,3.070115662E-1,2.779719543E0,3.931707380E0
6.600248500E0,-6.308481445E0,-4.701722717E-1,-9.500743103E-1,6.396924363E0
6.610318500E0,-8.782536621E0,-1.764530640E0,-1.617087250E0,9.102828629E0
6.620359500E0,-9.592202911E0,-2.109114075E0,-8.918453979E-1,9.861749697E0
6.630429500E0,-6.972799988E0,-3.901337128E0,1.808239746E-1,7.992062835E0
6.640500500E0,-2.682272186E0,-8.820856934E0,2.083966370E0,9.452249307E0
6.650541500E0,9.948312378E-1,-1.538171356E1,3.414699097E0,1.578755748E1
6.660611500E0,4.570296021E0,-2.239942017E1,3.387755127E0,2.311057148E1
6.670682500E0,8.231831818E0,-2.827589996E1,2.327809296E0,2.954163621E1
6.680722500E0,1.025517426E1,-3.239278885E1,1.844015350E0,3.402736782E1
6.690793500E0,9.082961884E0,-3.406930252E1,1.185684357E0,3.527922077E1
6.700864500E0,7.291487274E0,-3.368894348E1,-1.717378693E0,3.451173843E1
6.710935500E0,6.052064667E0,-3.404744797E1,-5.467530212E0,3.501071388E1
6.720975500E0,4.296215973E0,-3.604339737E1,-7.330256653E0,3.703129255E1
6.731069333E0,1.991309052E0,-3.713447845E1,-6.960824890E0,3.783368717E1
6.741140333E0,7.005432129E-2,-3.784460175E1,-5.879024506E0,3.829858637E1
6.751180333E0,-9.771679688E-1,-3.921230759E1,-3.717070312E0,3.940020984E1
6.761251333E0,-4.233197021E-1,-3.790462692E1,-8.620573425E-1,3.791679159E1
6.771322333E0,1.406175842E0,-3.120455978E1,2.368973694E0,3.132593044E1
6.781362333E0,3.928879852E0,-2.285477325E1,7.220983887E0,2.428825572E1
6.791433333E0,6.248456268E0,-1.572839264E1,1.328532303E1,2.151570005E1
6.801503333E0,8.510851593E0,-9.052874451E0,1.478849716E1,1.931550618E1
6.811544333E0,9.559570770E0,-4.253404999E0,1.352707031E1,1.710141745E1
6.821615333E0,8.647367706E0,-1.165775757E0,1.229827560E1,1.507924349E1
6.831685333E0,6.311026154E0,1.062789917E0,1.210338089E1,1.369125277E1
6.841726333E0,3.624562683E0,3.630550232E0,1.265228943E1,1.365279376E1
6.851796333E0,1.414558411E-1,6.632856903E0,1.184995789E1,1.358073276E1
6.861867333E0,-4.307292938E0,1.090242828E1,9.121431885E0,1.485315571E1
6.871938333E0,-9.579928436E0,1.715447708E1,5.597909088E0,2.043006850E1
6.881978333E0,-1.439541458E1,2.122885437E1,6.320306854E0,2.641663297E1
6.892049333E0,-1.717109253E1,1.979768051E1,8.377478943E0,2.751321002E1
6.902120333E0,-1.268611908E1,1.197749268E1,8.545878754E0,1.942755753E1
6.912160333E0,-3.476819916E0,5.722749481E0,7.094347229E0,9.755403680E0
6.922231333E0,2.437082062E0,4.589755554E0,6.152356110E0,8.053366422E0
6.932302333E0,4.515210571E0,3.642225952E0,5.338498535E0,7.883685877E0
6.942342333E0,3.108735352E0,1.850901031E0,3.931873627E0,5.343191961E0
6.952413333E0,1.335223389E0,-1.042881317E0,3.778742065E0,4.141173087E0
6.962484333E0,5.825885010E-1,-3.830833740E0,1.509760437E0,4.158614323E0
6.972524333E0,1.148561554E0,-6.925797729E0,-4.124822388E0,8.142482887E0
6.982595333E0,2.969674530E0,-1.158321259E1,-1.321167618E1,1.781960067E1
6.992666333E0,4.176165619E0,-1.589873840E1,-2.290821213E1,2.819568096E1
7.002706333E0,2.394121399E0,-1.671184753E1,-2.315879105E1,2.865915679E1
7.012777333E0,-6.771917725E-1,-1.380698822E1,-2.024510010E1,2.451439557E1
7.022847333E0,-4.375850372E0,-9.312584381E0,-1.536150558E1,1.848913595E1
7.032918333E0,-8.084837494E0,-4.224814453E0,-7.198380890E0,1.162025567E1
7.042959333E0,-1.261411880E1,2.145338745E0,6.299500122E0,1.426191338E1
7.053029333E0,-1.903127426E1,-1.347647552E0,1.227642105E1,2.268735480E1
7.063100333E0,-1.670211777E1,-1.602627319E1,1.227851669E1,2.620236903E1
7.073140333E0,-9.602381744E0,-2.715383331E1,2.791694641E0,2.893665422E1
7.083211333E0,-5.122797089E0,-2.840882355E1,4.670288086E0,2.924236475E1
7.093282333E0,-1.841919708E0,-2.092558502E1,1.679702042E1,2.689633194E1
7.103322333E0,3.285667419E-1,-1.290960434E1,2.104234222E1,2.468898553E1
7.113393333E0,3.555256805E0,-5.434149628E0,2.424463303E1,2.509924429E1
7.123464333E0,5.856122131E0,-1.204844513E0,2.301269485E1,2.377666800E1
7.133504333E0,7.912396088E0,-2.140848083E0,1.874237503E1,2.045643821E1
7.143575333E0,1.165790726E1,-5.711373138E0,1.335043762E1,1.862151362E1
7.153646333E0,1.429287781E1,-1.373453888E1,6.496640167E0,2.085977583E1
7.163686333E0,1.541120224E1,-2.159020294E1,2.238744507E0,2.662055586E1
7.173757333E0,1.725536728E1,-2.872107422E1,-3.076851654E0,3.364691398E1
7.183828333E0,1.615425705E1,-3.383114777E1,-1.371148682E-1,3.749033716E1
7.193868333E0,1.330627945E1,-3.723970963E1,3.758534088E0,3.972379167E1
7.203939333E0,1.207823318E1,-3.776302139E1,1.058748322E0,3.966170003E1
7.214010333E0,9.183403015E0,-3.245431091E1,-5.791606293E0,3.422221342E1
7.224080333E0,5.052742767E0,-2.602203690E1,-9.678124237E0,2.821954469E1
7.234121333E0,7.903564453E-2,-2.148003204E1,-1.088536377E1,2.408088802E1
7.244191333E0,-4.823569336E0,-1.828612381E1,-1.059197388E1,2.167577117E1
7.254262333E0,-7.241790619E0,-1.528561340E1,-8.725654907E0,1.903235566E1
7.264303333E0,-7.068451080E0,-1.249272125E1,-6.959328003E0,1.595190682E1
7.274373333E0,-5.725144501E0,-1.011970596E1,-6.189778290E0,1.317190509E1
7.284444333E0,-3.893104248E0,-8.113278351E0,-6.932234344E0,1.135946386E1
7.294484333E0,-1.926793213E0,-6.786736908E0,-9.588011627E0,1.190387739E1
7.304555333E0,7.578739929E-1,-5.817652130E0,-1.262444733E1,1.392106747E1
7.314626333E0,5.161716156E0,-4.366869049E0,-1.595217728E1,1.732584251E1
7.324666333E0,1.029843430E1,-2.089804230E0,-1.961012054E1,2.224818776E1
7.334737333E0,1.373139542E1,-3.459306335E-1,-2.140982803E1,2.543720945E1
7.344808333E0,1.584559891E1,-2.981799316E-1,-1.842069397E1,2.430007988E1
7.354848333E0,1.639944717E1,-6.451583862E-1,-8.942553864E0,1.869030140E1
7.364919333E0,1.381896332E1,-8.574169922E-1,3.309916992E0,1.423567566E1
7.374990333E0,9.061107330E0,-9.891430664E-1,9.177864532E0,1.293504030E1
7.385061333E0,3.171903992E0,-1.359173584E0,7.069947968E0,7.867178149E0
7.395101333E0,-2.654579773E0,-2.399809570E0,2.940634918E0,4.631761378E0
7.405172333E0,-7.121889954E0,-3.134481812E0,4.580474854E-1,7.794619955E0
7.415243333E0,-9.420210571E0,-2.827919312E0,-3.278182983E-1,9.840983674E0
7.425283333E0,-9.241931305E0,-2.738854523E0,-1.875599670E-1,9.641047510E0
7.435354333E0,-6.207591248E0,-4.935985565E0,6.987469482E-1,7.961557002E0
7.445424333E0,-1.748214569E0,-1.029304550E1,2.496059418E0,1.073467990E1
7.455465333E0,2.590812378E0,-1.776236298E1,2.719245300E0,1.815511339E1
7.465535333E0,7.233557739E0,-2.606544662E1,1.769320679E0,2.710834486E1
7.475606333E0,1.096993790E1,-3.250385788E1,8.566685486E-1,3.431580096E1
7.485647333E0,1.124297012E1,-3.498644531E1,4.781057739E-1,3.675165735E1
7.495717333E0,8.330476685E0,-3.493046173E1,-1.117725677E0,3.592747290E1
7.505788333E0,5.835165710E0,-3.625356033E1,-4.136049042E0,3.695235713E1
7.515828333E0,3.768413544E0,-3.896636902E1,-7.153324585E0,3.979634289E1
7.525899333E0,1.256786499E0,-4.024680634E1,-8.209977264E0,4.109487388E1
7.535970333E0,8.442443848E-2,-3.990776138E1,-5.879323883E0,4.033860428E1
7.546041333E0,-5.694158936E-1,-3.894960388E1,-2.982847137E0,3.906780329E1
7.556081333E0,-2.377056885E-1,-3.624562683E1,-5.712121582E-1,3.625090691E1
7.566152333E0,2.247426453E0,-2.960453705E1,2.040107574E0,2.975973082E1
7.576223333E0,5.256020050E0,-2.148257675E1,5.604495392E0,2.281528477E1
7.586263333E0,7.967631226E0,-1.498129623E1,1.057790314E1,1.999535994E1
7.596334333E0,1.056323364E1,-9.319320374E0,1.349847977E1,1.951001264E1
7.606405333E0,1.172287216E1,-5.168003082E0,1.318293594E1,1.838270349E1
7.616445333E0,1.037178177E1,-2.874322815E0,1.238509506E1,1.640811288E1
7.626516333E0,7.540419617E0,-1.127605133E0,1.350835922E1,1.551145352E1
7.636587333E0,4.493206329E0,1.443448334E0,1.515703079E1,1.587476074E1
7.646627333E0,3.571572876E-1,4.906347198E0,1.495135849E1,1.573985149E1
7.656698333E0,-5.255421295E0,1.073028625E1,1.179666870E1,1.679047017E1
7.666768333E0,-1.195758408E1,1.803419769E1,8.357420654E0,2.319617605E1
7.676809333E0,-1.796863403E1,2.073982132E1,9.742340698E0,2.911915520E1
7.686879333E0,-1.983854553E1,1.858924347E1,1.191088120E1,2.968159282E1
7.696950333E0,-1.306004150E1,1.194231583E1,1.001267853E1,2.033315821E1
7.707021333E0,-2.575095062E0,6.379284210E0,6.532715149E0,9.486977856E0
7.717061333E0,3.664978638E0,5.453010406E0,4.664150848E0,8.057399956E0
7.727132333E0,4.696333923E0,4.271966400E0,4.148922272E0,7.584115325E0
7.737211833E0,2.578837280E0,1.798060913E0,3.519780579E0,4.719351660E0
7.747251833E0,1.054856415E0,-9.580078125E-1,1.806144104E0,2.300577656E0
7.757322833E0,9.857002258E-1,-3.795806580E0,-1.908980255E0,4.361646265E0
7.767393833E0,1.992356873E0,-7.064259796E0,-7.972570953E0,1.083674951E1
7.777433833E0,3.993844757E0,-1.150986511E1,-1.782747757E1,2.159274756E1
7.787504833E0,4.521946564E0,-1.561522797E1,-2.712329681E1,3.162208999E1
7.797575833E0,9.852511597E-1,-1.639166336E1,-2.488814484E1,2.981739595E1
7.807615833E0,-2.333647156E0,-1.222313187E1,-1.936268509E1,2.301661216E1
7.817686833E0,-5.271737366E0,-7.129075012E0,-1.131856293E1,1.437792725E1
7.827757833E0,-8.955576782E0,-9.339079285E-1,4.054169312E0,9.874757128E0
7.837797833E0,-1.593795685E1,-1.465452576E-1,1.231923203E1,2.014456308E1
7.847868833E0,-1.672112823E1,-1.651575531E1,1.113220047E1,2.600561844E1
7.857938833E0,-8.691076813E0,-3.228830612E1,1.328786774E0,3.346393884E1
7.867979833E0,-3.087030487E0,-3.554538300E1,2.098186798E0,3.574082256E1
7.878050833E0,-2.311193848E-1,-2.514156784E1,1.904444687E1,3.154112880E1
7.888120833E0,1.145717468E0,-1.396416138E1,2.165007843E1,2.578829904E1
7.898191833E0,3.553460541E0,-4.478387146E0,2.058399536E1,2.136314346E1
7.908231833E0,4.621938629E0,1.743723907E0,1.818388641E1,1.884294602E1
7.918302833E0,5.922883301E0,4.351600800E0,1.076082275E1,1.303120418E1
7.928373833E0,8.897647247E0,4.308640137E0,7.058272247E0,1.214708663E1
7.938413833E0,1.151764893E1,-3.877237244E0,7.206314392E0,1.412870031E1
7.948484833E0,1.304941360E1,-1.427476547E1,6.137387238E0,2.029097452E1
7.958555833E0,1.447055832E1,-2.504771301E1,2.095791779E0,2.900305723E1
7.968595833E0,1.443732742E1,-3.494423309E1,8.849597168E-1,3.781955848E1
7.978666833E0,1.380743729E1,-4.209396515E1,2.913541260E0,4.439635063E1
7.988737833E0,1.502365814E1,-4.477054916E1,3.006647644E0,4.731968202E1
7.998777833E0,1.517289780E1,-3.813439911E1,-5.951623535E-1,4.104635722E1
8.008848833E0,1.102068237E1,-2.785243057E1,-6.782395935E0,3.071179290E1
8.018919833E0,4.548142090E0,-2.205319016E1,-8.778045959E0,2.416780676E1
8.028959833E0,-1.865420837E0,-1.743244904E1,-9.404792633E0,1.989523055E1
8.039030833E0,-6.196813660E0,-1.358410172E1,-8.531957703E0,1.719658749E1
8.049101833E0,-7.802524567E0,-1.035202286E1,-7.295828247E0,1.487524375E1
8.059171833E0,-8.064030762E0,-8.282426605E0,-6.280190277E0,1.315553011E1
8.069212833E0,-6.993906097E0,-7.296576691E0,-5.766009521E0,1.163622016E1
8.079282833E0,-4.712500305E0,-6.917415161E0,-7.066355438E0,1.095407097E1
8.089353833E0,-1.526675262E0,-6.543043671E0,-1.114207993E1,1.301107616E1
8.099394833E0,2.669548645E0,-5.801635437E0,-1.700389023E1,1.816363803E1
8.109464833E0,8.137527924E0,-4.513713684E0,-2.094384705E1,2.291806495E1
8.119535833E0,1.258597733E1,-2.799179077E0,-2.058294754E1,2.428785619E1
8.129575833E0,1.496213608E1,-1.499282227E0,-1.580533264E1,2.181563437E1
8.139646833E0,1.595696732E1,-9.038204956E-1,-6.904242554E0,1.741006211E1
8.149717833E0,1.481948273E1,-5.405259705E-1,2.149530029E0,1.498431567E1
8.159757833E0,1.137275024E1,-4.459226990E-1,5.367987213E0,1.258386196E1
8.169828833E0,5.973927155E0,-1.217268677E0,3.280727692E0,6.923346219E0
8.179899833E0,-1.228944397E-1,-2.852318573E0,-1.481918335E-1,2.858808336E0
8.189939833E0,-5.879174194E0,-3.756438446E0,-2.468367004E0,7.400564484E0
8.200010833E0,-1.054107971E1,-3.644471283E0,-8.340655518E-1,1.118446234E1
8.210081833E0,-1.243134888E1,-3.501668243E0,2.405198364E0,1.313716463E1
8.220152833E0,-9.695787506E0,-5.200335846E0,3.738475800E0,1.162015446E1
8.230192833E0,-5.029990082E0,-1.059032730E1,4.656067657E0,1.261486419E1
8.240263833E0,-6.198609924E-1,-1.807386520E1,4.978646851E0,1.875728540E1
8.250334833E0,4.087549896E0,-2.591426102E1,4.709506531E0,2.665401358E1
8.260374833E0,7.515271912E0,-3.204341537E1,2.779569855E0,3.303007401E1
8.270445833E0,8.376580811E0,-3.620266617E1,-5.278024292E-1,3.716286748E1
8.280515833E0,7.722890167E0,-3.725707352E1,-2.464924164E0,3.812883962E1
8.290556833E0,5.829776917E0,-3.659275497E1,-3.323838043E0,3.720300949E1
8.300626833E0,3.849844208E0,-3.689737152E1,-2.850372620E0,3.720701479E1
8.310697833E0,1.687590637E0,-3.613186340E1,-2.510130157E0,3.625824415E1
8.320738833E0,-4.715194702E-2,-3.422512848E1,-2.236199799E0,3.429813745E1
8.330808833E0,-1.829196167E0,-3.377426605E1,-8.954379272E-1,3.383561460E1
8.340879833E0,-2.091151428E0,-3.328134109E1,2.349663849E0,3.342965001E1
8.350919833E0,-7.520361328E-1,-2.940290634E1,3.840862885E0,2.966224346E1
8.360990833E0,1.792971497E0,-2.284264847E1,4.369114380E0,2.332574750E1
8.371061833E0,4.768932953E0,-1.569516174E1,7.128326569E0,1.788557696E1
8.381132833E0,7.900720367E0,-8.866511993E0,1.068702621E1,1.597651234E1
8.391172833E0,1.123862915E1,-2.992277527E0,1.075992462E1,1.584413102E1
8.401243833E0,1.244137802E1,2.838098145E-1,1.116034195E1,1.671591061E1
8.411314833E0,1.074106384E1,2.042502594E0,1.250604355E1,1.661154401E1
8.421354833E0,7.176676025E0,4.561763763E0,1.349563568E1,1.595138081E1
8.431425833E0,2.957100677E0,8.787775726E0,1.455752747E1,1.725952064E1
8.441496833E0,-3.102149048E0,1.550685333E1,1.336316116E1,2.070410359E1
8.451536833E0,-1.153920410E1,2.399255722E1,1.054841446E1,2.863677847E1
8.461607833E0,-1.813613571E1,2.480416946E1,1.351569397E1,3.356844091E1
8.471678833E0,-1.468072128E1,1.523112671E1,1.339250015E1,2.503736924E1
8.481718833E0,-4.057612152E0,7.236252136E0,8.355325012E0,1.177450710E1
8.491789833E0,3.480262756E-1,5.340594177E0,4.283492432E0,6.855025592E0
8.501859833E0,-4.385879517E-1,2.589315491E0,5.737568665E-1,2.688142675E0
8.511900833E0,-2.468816071E0,-6.646179199E-1,-1.147513733E0,2.802419943E0
8.521970833E0,-2.758912811E0,-2.752176819E0,-2.618654480E0,4.695042963E0
8.532041833E0,-9.737251282E-1,-4.709506531E0,-6.720724182E0,8.264122816E0
8.542112833E0,1.863923950E0,-7.470365295E0,-1.510942978E1,1.695804937E1
8.552152833E0,4.130660248E0,-1.067774551E1,-2.355501709E1,2.618998727E1
8.562223833E0,3.935316467E0,-1.221968903E1,-2.689427307E1,2.980116507E1
8.572294833E0,2.192191315E0,-9.953102417E0,-2.759122375E1,2.941335715E1
8.582334833E0,3.318598938E-1,-6.643933868E0,-2.474788651E1,2.562635118E1
8.592405833E0,-3.630250854E0,-2.626887360E0,-8.951535187E0,1.001045657E1
8.602476833E0,-1.175176208E1,-5.406756592E-1,1.269839355E1,1.731026982E1
8.612516833E0,-1.687051758E1,-1.642639114E1,1.476918732E1,2.779513597E1
8.622587833E0,-1.067190765E1,-3.241973282E1,1.388946671E1,3.684896165E1
8.632658833E0,-8.385113068E0,-3.480277725E1,1.148202301E1,3.759495017E1
8.642698833E0,-7.222181396E0,-2.494727188E1,1.186702240E1,2.855437793E1
8.652769833E0,-3.441643066E0,-1.165072220E1,1.507799515E1,1.936311371E1
8.662840833E0,1.480421448E-1,-6.956034851E-1,2.012909134E1,2.014165085E1
8.672880833E0,2.561174011E0,5.544619904E0,2.225437180E1,2.307725040E1
8.682951833E0,4.553979950E0,5.181924133E0,1.678265030E1,1.814520383E1
8.693022833E0,8.636889496E0,2.093097382E0,1.099523529E1,1.413761352E1
8.703062833E0,1.140583145E1,-7.682174835E0,6.538403320E0,1.522693401E1
8.713133833E0,1.167167862E1,-1.785187683E1,6.520889740E0,2.230335381E1
8.723203833E0,1.357646759E1,-2.562461334E1,5.773643646E0,2.956816264E1
8.733288333E0,1.416893555E1,-3.393832489E1,3.298989716E0,3.692495043E1
8.743328333E0,1.293639862E1,-4.190445923E1,3.702251129E0,4.401182541E1
8.753399333E0,1.256397308E1,-4.488985107E1,3.748654633E0,4.676542057E1
8.763470333E0,1.283341278E1,-3.964400986E1,1.357676697E0,4.169157334E1
8.773510333E0,1.051997360E1,-2.946323090E1,-3.610491943E0,3.149265742E1
8.783581333E0,4.723876648E0,-2.356100464E1,-8.788973236E0,2.558675440E1
8.793652333E0,-1.710942078E0,-1.956416611E1,-1.001821701E1,2.204650971E1
8.803692333E0,-6.775360565E0,-1.630753830E1,-1.021715332E1,2.040175331E1
8.813763333E0,-9.109756165E0,-1.321960968E1,-9.947264557E0,1.888633923E1
8.823834333E0,-1.032118698E1,-1.013557297E1,-9.593849487E0,1.735795749E1
8.833874333E0,-9.993368683E0,-7.718249817E0,-8.211025085E0,1.506186346E1
8.843945333E0,-7.617060242E0,-6.528224487E0,-7.719896393E0,1.265836174E1
8.854016333E0,-3.836970978E0,-5.995632019E0,-1.021400986E1,1.244973682E1
8.864056333E0,5.318440247E-1,-5.282365265E0,-1.453642136E1,1.547558680E1
8.874127333E0,6.186634827E0,-4.325704651E0,-1.800994812E1,1.952804144E1
8.884198333E0,1.096619568E1,-3.270848236E0,-1.836530914E1,2.163886494E1
8.894268333E0,1.296618668E1,-2.476899261E0,-1.289538391E1,1.845394140E1
8.904309333E0,1.352048401E1,-1.857337646E0,-5.921835480E0,1.487687220E1
8.914380333E0,1.351284988E1,-1.520088959E0,-1.594334564E0,1.369122658E1
8.924450333E0,1.219199661E1,-1.657503204E0,1.350192261E-1,1.230489043E1
8.934491333E0,9.013506317E0,-2.867736511E0,3.215313721E-1,9.464174092E0
8.944561333E0,4.672832794E0,-4.758754120E0,-1.818717957E-1,6.671895117E0
8.954632333E0,2.366578674E-1,-6.163582764E0,-8.038284302E-1,6.220281310E0
8.964672333E0,-3.597618713E0,-6.487359467E0,-1.770817566E-1,7.420246034E0
8.974743333E0,-6.122568054E0,-7.231911163E0,1.536405029E0,9.599318677E0
8.984814333E0,-6.159391479E0,-1.071232361E1,3.399580536E0,1.281597161E1
8.994854333E0,-4.187242584E0,-1.496542923E1,4.252656555E0,1.611155363E1
9.004925333E0,-1.844314728E0,-1.830528397E1,4.357139282E0,1.890686596E1
9.014996333E0,1.475930786E-1,-2.094055389E1,4.321812744E0,2.138239104E1
9.025036333E0,1.949396210E0,-2.266706360E1,4.334536285E0,2.315996810E1
9.035107333E0,4.060456238E0,-2.361519196E1,3.800895996E0,2.426131502E1
9.045178333E0,5.763913879E0,-2.584794891E1,1.466201019E0,2.652336539E1
9.055249333E0,5.582940216E0,-3.159045731E1,-2.431393890E0,3.217200476E1
9.065289333E0,5.258265381E0,-3.732563095E1,-5.773344269E0,3.813375912E1
9.075360333E0,5.448669434E0,-3.946827530E1,-6.079757080E0,4.030379883E1
9.085431333E0,5.590873718E0,-3.843961441E1,-3.079096985E0,3.896591669E1
9.095471333E0,5.339696045E0,-3.581646927E1,1.148411865E0,3.623052131E1
9.105542333E0,5.027145996E0,-3.263408707E1,4.333638153E0,3.330219595E1
9.115612333E0,5.282365265E0,-2.800765778E1,6.091432800E0,2.914511675E1
9.125653333E0,5.883066101E0,-2.200933136E1,6.246959381E0,2.362298955E1
9.135723333E0,7.149881744E0,-1.583976105E1,7.216792603E0,1.881756983E1
9.145794333E0,9.118587799E0,-1.021745270E1,8.090675354E0,1.590609980E1
9.155835333E0,1.026759842E1,-5.490432587E0,8.233478394E0,1.426038547E1
9.165905333E0,9.551337891E0,-2.057621155E0,8.984915771E0,1.327367966E1
9.175976333E0,7.738757172E0,1.269360352E-1,1.117501144E1,1.359357775E1
9.186016333E0,5.248984680E0,2.051334229E0,1.278042297E1,1.396778521E1
9.196087333E0,2.355801086E0,4.825814667E0,1.337498657E1,1.441279126E1
9.206158333E0,-1.192719727E0,9.279203796E0,1.226294907E1,1.542420576E1
9.216229333E0,-6.539750519E0,1.627281052E1,8.455766144E0,1.946978891E1
9.226269333E0,-1.254421417E1,2.184811661E1,7.992479553E0,2.643061176E1
9.236340333E0,-1.691722046E1,2.140264297E1,1.084030746E1,2.935605117E1
9.246411333E0,-1.267564087E1,1.314446594E1,1.046204407E1,2.104526603E1
9.256451333E0,-3.759881287E0,5.776787109E0,6.309379578E0,9.344316307E0
9.266522333E0,5.144801331E-1,4.006418610E0,3.721261597E0,5.492164214E0
9.276593333E0,1.599723358E0,1.974244537E0,1.712738342E0,3.064348046E0
9.286633333E0,5.936654663E-1,-6.399192810E-1,5.801934814E-1,1.048122058E0
9.296704333E0,-1.664538574E-1,-3.355871429E0,-1.546434174E0,3.698788801E0
9.306775333E0,4.343966675E-1,-6.561904449E0,-7.237299957E0,9.778844571E0
9.316815333E0,2.459834747E0,-1.083955902E1,-1.687021820E1,2.020274954E1
9.326886333E0,3.732937317E0,-1.482172806E1,-2.618953857E1,3.032342946E1
9.336956333E0,1.451082458E0,-1.506437347E1,-2.426259567E1,2.859570837E1
9.346997333E0,-1.538201294E0,-1.079435303E1,-2.023207718E1,2.298306045E1
9.357067333E0,-4.193529510E0,-6.340514832E0,-1.544218781E1,1.721188491E1
9.367138333E0,-8.830137634E0,-2.063159637E0,-5.595514069E0,1.065540877E1
9.377209333E0,-1.764246231E1,-2.140848083E0,6.193221130E0,1.882008754E1
9.387249333E0,-2.080209183E1,-1.981938538E1,9.638756104E0,3.030578625E1
9.397320333E0,-1.344309494E1,-3.566603210E1,1.036220169E1,3.949883380E1
9.407391333E0,-7.153773651E0,-3.553789856E1,1.117411331E1,3.793388353E1
9.417431333E0,-2.537822571E0,-2.112317413E1,1.615769989E1,2.671516975E1
9.427502333E0,-1.071172485E0,-8.528814240E0,1.808718750E1,2.002584416E1
9.437573333E0,-1.580712891E-1,5.273533630E-1,1.983270767E1,1.984034732E1
9.447613333E0,1.014141083E0,6.574029236E0,2.155188263E1,2.255504350E1
9.457684333E0,1.545086975E0,6.169570312E0,1.795186890E1,1.904522220E1
9.467755333E0,2.628533936E0,2.562371521E0,1.140223892E1,1.197856381E1
9.477795333E0,5.231471100E0,-6.906936951E0,7.394024048E0,1.139059522E1
9.487866333E0,6.720873871E0,-1.759635818E1,7.867489471E0,2.041321527E1
9.497937333E0,8.890462189E0,-2.456107498E1,1.075962524E1,2.824988951E1
9.507977333E0,1.267534149E1,-3.127880539E1,7.122339020E0,3.449283493E1
9.518048333E0,1.608704681E1,-4.049918152E1,8.625064087E-1,4.358578548E1
9.528119333E0,1.796384399E1,-4.645664291E1,1.182241516E0,4.982285677E1
9.538159333E0,1.974588821E1,-4.246878571E1,4.228556671E0,4.702529694E1
9.548230333E0,1.919488403E1,-3.269590851E1,2.383343811E0,3.798876589E1
9.558300333E0,1.454270828E1,-2.496164200E1,-3.945195923E0,2.915713474E1
9.568371333E0,7.216642914E0,-2.072320587E1,-8.550369415E0,2.355079646E1
9.578411333E0,1.886077881E-2,-1.736928040E1,-8.348439331E0,1.927144770E1
9.588482333E0,-5.021457825E0,-1.486034775E1,-8.153095551E0,1.767817697E1
9.598553333E0,-7.908504181E0,-1.305510178E1,-8.778644714E0,1.760808689E1
9.608593333E0,-8.909772034E0,-1.101664078E1,-8.918453979E0,1.674184079E1
9.618664333E0,-8.529562683E0,-9.361233215E0,-8.442294159E0,1.522033040E1
9.628735333E0,-7.435637512E0,-8.681347046E0,-1.172601562E1,1.637540638E1
9.638775333E0,-5.200335846E0,-9.274563446E0,-1.791579391E1,2.083354726E1
9.648846333E0,3.629951477E-1,-9.532177734E0,-2.274445267E1,2.466382584E1
9.658917333E0,7.228917389E0,-6.854994965E0,-2.243639328E1,2.454872595E1
9.668957333E0,1.145956970E1,-2.911744995E0,-1.835513031E1,2.183370801E1
9.679028333E0,1.326721069E1,-7.074288940E-1,-1.382719620E1,1.917578395E1
9.689099333E0,1.380100067E1,-5.484594727E-1,-5.012925568E0,1.469346283E1
9.699139333E0,1.285167480E1,-8.756790161E-1,3.970942383E0,1.347964178E1
9.709210333E0,1.031894165E1,-9.827064514E-1,7.384443970E0,1.272699028E1
9.719281333E0,6.876250763E0,-1.132694550E0,5.435496826E0,8.838011498E0
9.729386833E0,2.952610016E0,-1.626667328E0,2.618953857E0,4.268825577E0
9.739427833E0,-9.331594849E-1,-2.476150818E0,-1.702260132E0,3.146394612E0
9.749498833E0,-4.952301636E0,-4.047732697E0,-3.762725372E0,7.420750211E0
9.759568833E0,-7.622299347E0,-4.714146881E0,9.581575012E-1,9.013361967E0
9.769609833E0,-6.215524750E0,-7.109914856E0,6.808591461E0,1.164218858E1
9.779679833E0,-2.197729797E0,-1.317365524E1,1.009815079E1,1.674359155E1
9.789750833E0,2.066752167E0,-1.930909653E1,9.895472260E0,2.179525280E1
9.799790833E0,5.073699188E0,-2.402024963E1,6.400989075E0,2.537099677E1
9.809861833E0,4.453239441E0,-2.725622040E1,2.788551178E0,2.775804225E1
9.819932833E0,1.203796692E0,-2.744542694E1,2.254312134E-1,2.747273932E1
9.829972833E0,-7.304809570E-1,-2.492556702E1,-2.127825165E0,2.502688821E1
9.840043833E0,-1.271306305E0,-2.630644547E1,-4.179309082E0,2.666668178E1
9.850114833E0,-1.704355774E0,-3.085294098E1,-5.065615997E0,3.131244579E1
9.860154833E0,-1.551373901E0,-3.345527939E1,-5.185067596E0,3.389022582E1
9.870225833E0,-5.840853882E-1,-3.412049606E1,-3.817810822E0,3.433839086E1
9.880296833E0,7.277865601E-1,-3.466865616E1,-8.837622070E-1,3.468755438E1
9.890367833E0,2.381996613E0,-3.445714600E1,1.314566345E0,3.456438778E1
9.900407833E0,4.704417114E0,-3.294514023E1,2.122735748E0,3.334696106E1
9.910478833E0,7.222630463E0,-2.889231812E1,3.044668579E0,2.993664049E1
9.920549833E0,8.489296417E0,-2.202774307E1,5.179828491E0,2.416857964E1
9.930589833E0,9.474846954E0,-1.445678696E1,9.616302795E0,1.977990630E1
9.940660833E0,1.038824753E1,-7.981103210E0,1.169847290E1,1.756325606E1
9.950730833E0,1.045036835E1,-3.460803223E0,1.126003464E1,1.574724540E1
9.960771833E0,8.986562347E0,-5.870791626E-1,1.168200714E1,1.475033070E1
9.970842833E0,6.439758453E0,1.455573120E0,1.165147064E1,1.339201068E1
9.980912833E0,3.428769836E0,3.812871094E0,1.165311722E1,1.273144098E1
9.990953833E0,6.137237549E-3,6.746919708E0,1.168664749E1,1.349439487E1
1.000102383E1,-4.474794617E0,1.036938675E1,1.053808594E1,1.544665736E1
1.001109483E1,-1.014754807E1,1.543829590E1,7.357649689E0,1.988589251E1
1.002113483E1,-1.544024185E1,1.922557022E1,5.844446411E0,2.534129382E1
1.003120583E1,-1.941283081E1,1.978196320E1,5.429509277E0,2.824293963E1
1.004127683E1,-1.733784576E1,1.510029877E1,6.132447510E0,2.379552124E1
1.005134783E1,-6.892566833E0,7.671546936E0,5.778733063E0,1.182175392E1
1.006138783E1,1.105151825E0,5.382207642E0,4.698429565E0,7.229437048E0
1.007145883E1,4.378694458E0,4.646936646E0,2.958447876E0,7.037002144E0
1.008152983E1,2.925815735E0,1.263073425E0,2.806513824E0,4.246442280E0
1.009156983E1,9.386979675E-1,-2.296075287E0,3.769012299E0,4.512047130E0
1.010164083E1,1.338217163E0,-4.847369843E0,2.721939697E0,5.718109415E0
1.011171183E1,2.805016937E0,-7.586523743E0,-1.572480011E0,8.239912372E0
1.012175183E1,5.075046387E0,-1.123803040E1,-8.476572876E0,1.496334557E1
1.013182283E1,7.345674591E0,-1.563723221E1,-1.592358673E1,2.349558641E1
1.014189383E1,6.930737457E0,-1.890613449E1,-1.877500717E1,2.753139912E1
1.015193383E1,4.181704102E0,-1.808209808E1,-1.877141464E1,2.639725228E1
1.016200483E1,9.092092896E-1,-1.352093307E1,-2.275582901E1,2.648527981E1
1.017207483E1,-3.007695465E0,-8.672665100E0,-1.962000000E1,2.166115768E1
1.018211583E1,-7.009922791E0,-3.216960297E0,-8.331823883E0,1.135372804E1
1.019218583E1,-1.520552994E1,2.157014465E0,1.046144531E1,1.858232198E1
1.020225683E1,-2.573089233E1,-3.596720581E0,2.317899902E1,3.481782898E1
1.021232783E1,-2.450015167E1,-1.885958130E1,1.942929657E1,3.651628135E1
1.022236783E1,-1.529893570E1,-3.039040283E1,-5.169949036E0,3.441456655E1
1.023243883E1,-3.535647583E0,-2.839849503E1,-3.097658386E0,2.878490596E1
1.024250983E1,2.323917389E0,-1.766880753E1,1.869492371E1,2.582803755E1
1.025254983E1,5.551655273E0,-1.097652420E1,2.578103806E1,2.856513405E1
1.026262083E1,8.632099457E0,-5.406756592E0,2.746862869E1,2.929627485E1
1.027269183E1,9.696086884E0,-2.338437195E0,2.243534546E1,2.455253786E1
1.028273183E1,1.162228134E1,-2.094444580E0,8.220006409E0,1.438862839E1
1.029280283E1,1.436906937E1,-8.757688293E0,-4.220922546E0,1.734887448E1
1.030287383E1,1.371373215E1,-1.820903412E1,1.517244873E0,2.284594942E1
1.031291383E1,1.280467255E1,-2.174438232E1,1.217523148E1,2.801810242E1
1.032298483E1,1.246907043E1,-2.524769714E1,1.063313828E1,3.009962721E1
1.033305583E1,1.201701050E1,-3.037378738E1,2.320025482E0,3.274687801E1
1.034309583E1,1.223480759E1,-3.325798965E1,-3.116369476E0,3.557381272E1
1.035316683E1,1.268626877E1,-3.130110901E1,-1.501826935E0,3.380763707E1
1.036323783E1,1.256936188E1,-2.680086731E1,5.939648438E-1,2.960790673E1
1.037327783E1,9.348359985E0,-2.451991058E1,-1.282383270E0,2.627284447E1
1.038334883E1,4.286486206E0,-2.333542374E1,-6.427933044E0,2.458117752E1
1.039341883E1,-1.666035461E0,-2.187970093E1,-8.344098358E0,2.347596567E1
1.040348983E1,-6.510261841E0,-2.016322037E1,-6.512207794E0,2.216636676E1
1.041352983E1,-8.622669067E0,-1.754232056E1,-4.513563995E0,2.006129837E1
1.042360083E1,-7.944429474E0,-1.374920837E1,-4.886588287E0,1.661425399E1
1.043367183E1,-6.134393463E0,-1.105421265E1,-4.303401031E0,1.335461197E1
1.044371183E1,-4.004322968E0,-8.788673859E0,-4.186643829E0,1.052631831E1
1.045378283E1,-1.885928192E0,-6.396947479E0,-6.311774597E0,9.182383175E0
1.046385383E1,5.102888489E-1,-5.019511871E0,-9.978399811E0,1.118142911E1
1.047389383E1,3.345842285E0,-5.039719849E0,-1.355970245E1,1.484786070E1
1.048396483E1,6.575975189E0,-5.015021210E0,-1.606803635E1,1.807140502E1
1.049403583E1,9.297765198E0,-4.461921387E0,-1.788286240E1,2.064349650E1
1.050407583E1,1.151645142E1,-3.425326996E0,-2.033880524E1,2.362262722E1
1.051414683E1,1.334130661E1,-2.497556305E0,-1.740041565E1,2.206813799E1
1.052421783E1,1.305585022E1,-3.056344299E0,-6.168522491E0,1.475964550E1
1.053425783E1,1.015877472E1,-4.138444061E0,4.185146942E0,1.174065066E1
1.054432883E1,6.209537201E0,-3.696263580E0,6.040987701E0,9.418824190E0
1.055439983E1,1.432820435E0,-2.242636414E0,3.306623840E0,4.244543992E0
1.056446983E1,-3.806733856E0,-1.300645294E0,-1.505868530E-1,4.025615137E0
1.057451083E1,-8.758137360E0,-1.878593445E0,-3.555556183E0,9.637222790E0
1.058458183E1,-1.252295837E1,-3.041525116E0,-3.410807190E0,1.333075269E1
1.059465183E1,-1.230920288E1,-3.505111084E0,-1.173409882E0,1.285220487E1
1.060469283E1,-7.450307007E0,-5.471422119E0,1.636097717E0,9.387244017E0
1.061476283E1,-1.896556091E0,-9.908644867E0,4.335584106E0,1.098068566E1
1.062483383E1,3.186274109E0,-1.619497238E1,6.591393127E0,1.777289893E1
1.063487383E1,8.356073456E0,-2.365231476E1,8.272247772E0,2.641374718E1
1.064494483E1,1.298310150E1,-3.018083862E1,7.475155334E0,3.369453801E1
1.065501583E1,1.536315216E1,-3.538566513E1,4.413871307E0,3.882852046E1
1.066505583E1,1.410352158E1,-3.806733856E1,9.418414307E-1,4.060687936E1
1.067512683E1,9.909542999E0,-3.757561111E1,-2.638712769E0,3.894981897E1
1.068519783E1,6.223757629E0,-3.738760208E1,-4.392465820E0,3.815575585E1
1.069523783E1,3.137176208E0,-3.771976135E1,-4.318669281E0,3.809557947E1
1.070530883E1,1.980082397E0,-3.643213898E1,-3.289858704E0,3.663392754E1
1.071537983E1,9.380992126E-1,-3.614159317E1,-2.440674591E0,3.623605497E1
1.072545083E1,-1.091230774E0,-3.392814606E1,-1.761836243E-1,3.394614735E1
1.073550387E1,-2.435585175E0,-2.880804337E1,1.702110443E0,2.896088082E1
1.074557487E1,-2.281256104E0,-2.197325638E1,5.199737091E0,2.269505213E1
1.075564587E1,4.846920776E-1,-1.517469406E1,8.355923767E0,1.732996619E1
1.076568587E1,3.805835724E0,-9.529034271E0,1.096529755E1,1.501747748E1
1.077575687E1,7.015610962E0,-5.062472534E0,1.130868347E1,1.423846014E1
1.078582687E1,9.455836487E0,-1.678160248E0,9.866282959E0,1.376853677E1
1.079586788E1,9.944270782E0,2.902464294E-1,9.273964691E0,1.360070533E1
1.080593887E1,8.095615082E0,1.362466736E0,9.992021484E0,1.293196785E1
1.081600887E1,4.740342407E0,3.287763062E0,1.180026123E1,1.313493042E1
1.082604987E1,4.032614136E-1,6.762337646E0,1.269510040E1,1.438948937E1
1.083611987E1,-5.737718353E0,1.179577057E1,1.134670441E1,1.734385528E1
1.084619087E1,-1.348216370E1,1.730506393E1,9.288334808E0,2.382240834E1
1.085623087E1,-1.878039597E1,1.747391281E1,1.112830856E1,2.796211997E1
1.086630187E1,-1.616039429E1,1.237401810E1,1.037462585E1,2.284529556E1
1.087637287E1,-5.012626190E0,6.909930725E0,6.796766052E0,1.091190143E1
1.088644387E1,2.751578064E0,6.029761047E0,5.364694061E0,8.526965609E0
1.089648387E1,4.297563171E0,5.895789642E0,2.633174286E0,7.756480615E0
1.090655488E1,2.360591125E0,2.904410248E0,1.077459412E0,3.894728249E0
1.091662587E1,6.973997498E-1,-7.029382324E-1,1.710942078E-1,1.004869045E0
1.092666587E1,1.295855255E0,-3.996988220E0,-3.046165466E0,5.189824633E0
1.093673687E1,3.272943878E0,-7.794890442E0,-9.319170685E0,1.258250456E1
1.094680787E1,5.683830414E0,-1.173260193E1,-1.694117065E1,2.137669617E1
1.095684787E1,6.568790131E0,-1.448597626E1,-2.289099792E1,2.787454570E1
1.096691887E1,5.051694946E0,-1.421683594E1,-2.494158371E1,2.914996816E1
1.097698987E1,2.834655304E0,-1.073836945E1,-2.456077560E1,2.695513953E1
1.098702987E1,-5.417234802E-1,-6.335724792E0,-1.471814346E1,1.603304774E1
1.099710087E1,-5.671555939E0,-3.870950317E-1,5.614524536E0,7.989948379E0
1.100717087E1,-1.277862671E1,3.908372498E0,2.162493073E1,2.542058821E1
1.101721187E1,-2.069057373E1,2.091151428E-1,2.190439957E1,3.013214713E1
1.102728287E1,-2.077814163E1,-1.493713806E1,1.471185654E1,2.951758774E1
1.103735287E1,-1.533111877E1,-3.223471756E1,-1.871932297E1,4.030549927E1
1.104742387E1,-3.692970428E0,-3.952530670E1,-1.576072540E1,4.271168886E1
1.105746387E1,5.155279541E-1,-2.802951233E1,1.628463593E1,3.242080656E1
1.106753487E1,5.301974487E-1,-1.885598877E1,2.176578781E1,2.880241207E1
1.107760587E1,3.717220001E0,-1.112007568E1,2.327779358E1,2.606394985E1
1.108764587E1,5.858666840E0,-3.171454926E0,1.999437149E1,2.107503250E1
1.109771687E1,7.263495483E0,1.875300293E0,1.156465118E1,1.378463909E1
1.110778788E1,9.108408966E0,3.840413818E0,5.838159485E0,1.148024383E1
1.111782787E1,1.299357971E1,-2.301763458E0,5.361400909E0,1.424344932E1
1.112789887E1,1.516092270E1,-1.305614960E1,8.416098633E0,2.170592858E1
1.113796987E1,1.597373245E1,-2.216440887E1,1.058224411E1,2.929855013E1
1.114800987E1,1.635498962E1,-3.054997101E1,9.010512543E0,3.580468895E1
1.115808088E1,1.584365295E1,-3.775957855E1,4.981640625E0,4.125074369E1
1.116815187E1,1.411175446E1,-4.088253433E1,1.836081848E0,4.328850221E1
1.117819187E1,1.160895905E1,-3.681668930E1,1.195414124E0,3.862208638E1
1.118826287E1,8.403524780E0,-2.837229950E1,-9.090596008E-1,2.960461108E1
1.119833387E1,3.248394928E0,-2.213162704E1,-6.732549591E0,2.335997023E1
1.120840387E1,-2.818788300E0,-1.882245850E1,-1.035786072E1,2.166831304E1
1.121844487E1,-7.136110382E0,-1.644076126E1,-1.090003326E1,2.097697374E1
1.122851487E1,-9.347611542E0,-1.431802551E1,-9.914033661E0,1.976541827E1
1.123858587E1,-9.440119171E0,-1.178619049E1,-8.242160339E0,1.720358519E1
1.124862587E1,-8.074508972E0,-9.624685364E0,-7.259304199E0,1.450964372E1
1.125869687E1,-6.072871399E0,-7.974516907E0,-8.077652435E0,1.287327292E1
1.126876787E1,-3.059188385E0,-6.713090057E0,-1.056278458E1,1.288396793E1
1.127880787E1,1.050066376E0,-5.737418976E0,-1.383078873E1,1.501037417E1
1.128887887E1,6.265520782E0,-4.606520691E0,-1.681677933E1,1.852783988E1
1.129894987E1,1.098296082E1,-3.507206726E0,-1.876752274E1,2.202602635E1
1.130898987E1,1.414842819E1,-2.450554047E0,-1.893951508E1,2.376738241E1
1.131906087E1,1.663430878E1,-1.844015350E0,-1.509940063E1,2.254090772E1
1.132913187E1,1.725581635E1,-2.030976563E0,-6.045328674E0,1.839657746E1
1.133917187E1,1.516212021E1,-1.735790405E0,3.367547150E0,1.562828306E1
1.134924287E1,1.060828995E1,-1.047222290E0,7.155719604E0,1.283887897E1
1.135931388E1,4.768483887E0,-5.472619629E-1,5.083578644E0,6.991473812E0
1.136935387E1,-1.346450043E0,-6.483018494E-1,2.528242493E0,2.936874718E0
1.137942487E1,-7.012766876E0,-1.468895416E0,-7.403604126E-1,7.203102564E0
1.138949587E1,-1.159443924E1,-2.402354279E0,-3.020419006E0,1.221987145E1
1.139956587E1,-1.406864410E1,-3.114124146E0,-1.822460175E0,1.452397594E1
1.140960688E1,-1.176298874E1,-5.119054871E0,1.951641541E0,1.297619095E1
1.141967787E1,-6.672823792E0,-1.008767258E1,5.060526581E0,1.311093607E1
1.142974787E1,-2.032473450E0,-1.637220383E1,6.352040863E0,1.767847362E1
1.143978887E1,2.600093079E0,-2.313528992E1,6.064339142E0,2.405781230E1
1.144985887E1,6.695576477E0,-2.841301483E1,2.474354553E0,2.929594830E1
1.145992987E1,8.730594635E0,-3.176379684E1,-3.106340332E0,3.308793470E1
1.146996987E1,9.448352051E0,-3.308554825E1,-5.340893555E0,3.482025278E1
1.148004087E1,8.881181488E0,-3.379177963E1,-4.761598206E0,3.526233930E1
1.149011187E1,7.055577850E0,-3.469185791E1,-3.991150360E0,3.562633107E1
1.150015187E1,4.999004517E0,-3.497911057E1,-3.126847687E0,3.547260067E1
1.151022287E1,3.629053345E0,-3.446058884E1,-2.163002014E0,3.471859428E1
1.152029387E1,2.825673981E0,-3.491773819E1,-9.406439209E-1,3.504451005E1
1.153033387E1,2.871329041E0,-3.467045242E1,4.420307922E-1,3.479195586E1
1.154040487E1,3.926335144E0,-3.167428299E1,1.724114685E0,3.196324267E1
1.155047587E1,4.807253265E0,-2.668800201E1,3.372187500E0,2.732637524E1
1.156054688E1,5.539680176E0,-2.039359131E1,5.976172485E0,2.196135835E1
1.157058687E1,6.363417206E0,-1.411205383E1,9.548194427E0,1.818821483E1
1.158065787E1,7.581134949E0,-8.508157196E0,1.125075394E1,1.601380061E1
1.159072887E1,8.128546600E0,-4.353696442E0,1.087144272E1,1.425539229E1
1.160076887E1,7.354805603E0,-1.719923401E0,1.075708054E1,1.314405126E1
1.161083988E1,5.638175354E0,1.678010559E-1,1.123294098E1,1.256965161E1
1.162090987E1,3.091970215E0,2.149829407E0,1.187330933E1,1.245622417E1
1.163095087E1,-3.592529297E-3,5.045258331E0,1.152034332E1,1.257668298E1
1.164102187E1,-3.879332886E0,9.956096191E0,9.032516785E0,1.399140574E1
1.165109187E1,-9.807604980E0,1.658281586E1,5.020709381E0,1.990945554E1
1.166113288E1,-1.564022598E1,2.096854568E1,6.111491089E0,2.686348638E1
1.167120287E1,-1.739966721E1,1.961955093E1,9.532177734E0,2.790228683E1
1.168127387E1,-1.002764740E1,1.174023605E1,8.704997864E0,1.772466764E1
1.169131387E1,-1.193767548E0,6.633156281E0,6.401737518E0,9.295487424E0
1.170138487E1,2.658771057E0,5.634133759E0,4.365372162E0,7.607167729E0
1.171145587E1,2.164049835E0,2.716700592E0,3.657793579E0,5.044108213E0
1.172152687E1,1.351689148E-1,-7.397616577E-1,2.772833862E0,2.872999404E0
1.173159446E1,-2.330653381E-1,-3.427722015E0,9.000782776E-1,3.551582545E0
1.174166546E1,8.530760193E-1,-6.212231598E0,-4.111200714E0,7.498101855E0
1.175173646E1,3.146307220E0,-9.682764587E0,-1.334220474E1,1.678301542E1
1.176177646E1,5.009632416E0,-1.300241135E1,-2.344978592E1,2.727730884E1
1.177184746E1,3.636687469E0,-1.385174515E1,-2.536580154E1,2.912937053E1
1.178191846E1,1.420995026E0,-1.043180695E1,-2.396755920E1,2.617796243E1
1.179195846E1,-7.509883118E-1,-6.555617523E0,-2.072111023E1,2.174636783E1
1.180202946E1,-4.614753571E0,-3.317102051E0,-1.035217255E1,1.180959749E1
1.181210046E1,-1.082114731E1,6.032455444E-2,5.314997406E0,1.205612150E1
1.182214046E1,-1.612312180E1,-7.652835846E0,9.758207703E0,2.034068756E1
1.183221146E1,-1.193692703E1,-2.457724136E1,1.043450134E1,2.924739028E1
1.184228146E1,-6.036347351E0,-3.208383133E1,1.170760391E1,3.468252747E1
1.185232246E1,-2.915636902E0,-2.901865540E1,1.351255051E1,3.214299800E1
1.186239346E1,-1.036594391E0,-1.871423355E1,1.745011230E1,2.560866035E1
1.187246346E1,7.298822021E-1,-9.788444824E0,1.752615417E1,2.008761958E1
1.188253446E1,2.487078094E0,-2.332000580E0,1.841635300E1,1.872927767E1
1.189257446E1,3.833827515E0,1.489851837E0,1.680240921E1,1.729852153E1
1.190264546E1,5.826334076E0,2.019600220E0,9.746681671E0,1.153354921E1
1.191271646E1,8.646918640E0,-1.785487061E0,2.950214996E0,9.309185493E0
1.192275646E1,9.550589447E0,-1.130464188E1,2.992127838E0,1.509839448E1
1.193282746E1,9.488169250E0,-1.867785919E1,9.088500366E0,2.283612530E1
1.194289846E1,1.062759979E1,-2.460208969E1,1.117067047E1,2.903433439E1
1.195293846E1,1.123668320E1,-3.210538651E1,7.264393616E0,3.478204000E1
1.196300946E1,1.191776688E1,-3.911456085E1,4.654271393E0,4.115390966E1
1.197308046E1,1.316826645E1,-4.039664474E1,4.482279053E0,4.272450086E1
1.198312046E1,1.414378784E1,-3.485052795E1,3.298390961E0,3.775560112E1
1.199319146E1,1.260962814E1,-2.679667603E1,3.749702454E-1,2.961764965E1
1.200326246E1,7.643555145E0,-2.201277420E1,-5.439837799E0,2.392860210E1
1.201330246E1,1.461560669E0,-1.895433426E1,-8.949589233E0,2.101185604E1
1.202337346E1,-3.943549347E0,-1.623957962E1,-9.160201263E0,1.905740840E1
1.203344446E1,-7.625592499E0,-1.460557755E1,-8.145760803E0,1.838004286E1
1.204351446E1,-8.699160004E0,-1.245889160E1,-6.304140472E0,1.645118694E1
1.205355546E1,-8.034991150E0,-9.886191559E0,-5.713319092E0,1.396208729E1
1.206362546E1,-6.488556976E0,-7.574548645E0,-6.660249939E0,1.199308501E1
1.207369646E1,-3.756588135E0,-5.692662048E0,-8.995992737E0,1.128920905E1
1.208373746E1,2.680924988E-1,-4.913382568E0,-1.220621704E1,1.316073464E1
1.209380746E1,4.596491547E0,-5.050198059E0,-1.525702286E1,1.671553114E1
1.210387846E1,8.285869446E0,-5.257516937E0,-1.677366898E1,1.943329843E1
1.211391846E1,1.073687256E1,-4.962779846E0,-1.766162247E1,2.125658779E1
1.212398946E1,1.275722122E1,-3.803291016E0,-1.838536743E1,2.269875440E1
1.213406046E1,1.414303940E1,-2.971919861E0,-1.554352707E1,2.122402188E1
1.214410046E1,1.387270157E1,-3.400179291E0,-6.699318695E0,1.577637281E1
1.215417146E1,1.152408554E1,-3.991749115E0,2.935545502E0,1.254416342E1
1.216424246E1,7.635022888E0,-3.861220551E0,7.184310150E0,1.117214890E1
1.217428246E1,3.204536133E0,-2.761158142E0,6.647227020E0,7.879002042E0
1.218435346E1,-1.185534668E0,-1.468895416E0,4.355792084E0,4.747217171E0
1.219442446E1,-5.170547791E0,-9.831555176E-1,1.091679840E0,5.375213865E0
1.220449546E1,-8.327033844E0,-1.528621216E0,-1.079854431E0,8.534767780E0
1.221453546E1,-9.428593140E0,-2.895428925E0,3.483256531E-1,9.869306359E0
1.222460646E1,-7.509134674E0,-6.489006042E0,2.736609192E0,1.029482068E1
1.223467646E1,-3.902085571E0,-1.231923203E1,3.705693970E0,1.344328521E1
1.224471746E1,2.221380615E-1,-1.881886597E1,4.054768066E0,1.925201822E1
1.225478846E1,4.849615173E0,-2.488350449E1,3.985312500E0,2.566301382E1
1.226485846E1,8.180039520E0,-2.819806183E1,1.816322937E0,2.941670897E1
1.227489946E1,8.794811096E0,-3.025089294E1,4.685256958E-1,3.150689992E1
1.228496946E1,7.135661316E0,-3.216645950E1,-6.090834045E-1,3.295405532E1
1.229504046E1,4.325105896E0,-3.306040054E1,-2.633024597E0,3.344591819E1
1.230508146E1,1.566642151E0,-3.424204330E1,-4.174818420E0,3.453115993E1
1.231515146E1,-4.406835938E-1,-3.479484375E1,-4.720733185E0,3.511638756E1
1.232522246E1,-1.476379852E0,-3.500770111E1,-4.417613525E0,3.531620228E1
1.233526246E1,-1.108145599E0,-3.527953583E1,-2.802921295E0,3.540804997E1
1.234533346E1,4.333488464E-1,-3.431658829E1,-1.951940918E-1,3.431987942E1
1.235540446E1,1.955533447E0,-3.205119919E1,1.881886597E0,3.216589774E1
1.236547546E1,2.611319733E0,-2.759212189E1,3.315006409E0,2.791296202E1
1.237551546E1,3.492088165E0,-2.135938293E1,6.138584747E0,2.249666957E1
1.238558646E1,4.971162415E0,-1.469149887E1,1.044348267E1,1.869809950E1
1.239565746E1,6.591842194E0,-8.531209259E0,1.241129059E1,1.644001366E1
1.240569746E1,7.677983551E0,-3.499572601E0,1.087338867E1,1.376332158E1
1.241576846E1,7.416627045E0,4.460723877E-2,9.792486420E0,1.228418238E1
1.242583946E1,5.946384430E0,2.145039368E0,9.248816986E0,1.120273615E1
1.243587946E1,3.721111908E0,3.909420319E0,8.889114990E0,1.039935606E1
1.244595046E1,6.855743408E-1,6.030509491E0,8.610544281E0,1.053463477E1
1.245602046E1,-2.889141998E0,9.588760071E0,7.468119965E0,1.249256887E1
1.246606146E1,-7.238796844E0,1.451741089E1,4.893923035E0,1.694419905E1
1.247613246E1,-1.227522354E1,1.779918640E1,3.575315094E0,2.191517802E1
1.248620246E1,-1.683369415E1,1.849928055E1,4.161047058E0,2.535568876E1
1.249624346E1,-1.730416580E1,1.472862167E1,6.679709473E0,2.368512126E1
1.250631346E1,-9.772877197E0,7.461683350E0,8.454568634E0,1.492198304E1
1.251638446E1,-2.826721802E0,3.543730774E0,6.817423096E0,8.186918933E0
1.252642446E1,1.338217163E-1,1.354383545E0,5.010081482E0,5.191645163E0
1.253649546E1,1.594933319E0,-4.507127380E-1,3.609593811E0,3.971916634E0
1.254656646E1,2.947221222E0,-2.154170380E0,1.628912659E0,3.997489138E0
1.255663746E1,4.765041046E0,-4.456682281E0,-1.055604858E0,6.609231025E0
1.256667746E1,7.022945709E0,-8.688681793E0,-7.471862183E0,1.344037508E1
1.257674846E1,9.154363403E0,-1.368918320E1,-1.728380814E1,2.387312568E1
1.258681946E1,9.329199829E0,-1.733125946E1,-2.405303146E1,3.107981413E1
1.259685946E1,7.716154175E0,-1.626038635E1,-2.385020325E1,2.987928035E1
1.260693046E1,4.388274536E0,-1.157273438E1,-1.883922363E1,2.254110648E1
1.261700146E1,-2.664459229E-1,-6.024521942E0,-9.075477448E0,1.089633649E1
1.262704146E1,-5.366939392E0,7.529342651E-1,4.934937744E0,7.329703881E0
1.263711246E1,-1.037417679E1,6.652316437E0,1.864672394E1,2.235122305E1
1.264718346E1,-1.429871567E1,9.503287811E0,2.235885452E1,2.819014233E1
1.265722346E1,-2.019166122E1,3.968846741E0,1.459674591E1,2.522934638E1
1.266729446E1,-1.664179321E1,-1.820993225E1,-3.705843658E0,2.494562469E1
1.267736446E1,-6.471193085E0,-4.974425629E1,-4.015414902E1,6.425514031E1
1.268740546E1,2.312840424E0,-5.474790115E1,-2.946622467E0,5.487590086E1
1.269747646E1,-2.074086914E0,-3.855831757E1,2.844819168E1,4.796191510E1
1.270754646E1,-4.641847229E-1,-2.269116348E1,2.832784195E1,3.629836081E1
1.271761746E1,2.949017487E0,-9.221873016E0,2.235361542E1,2.436029081E1
1.272765746E1,3.742218018E0,1.129551086E0,1.340896591E1,1.396712025E1
1.273773708E1,3.331472168E0,7.787555695E0,3.989952850E0,9.362929790E0
1.274780808E1,5.863307190E0,5.000651093E0,2.565814362E0,8.122086302E0
1.275784808E1,8.547824707E0,-4.278103638E0,6.259832611E0,1.142597839E1
1.276791908E1,9.001830597E0,-1.374292145E1,9.824819183E0,1.914230697E1
1.277799008E1,1.000040405E1,-2.329395996E1,1.223884918E1,2.814970837E1
1.278803008E1,1.268507126E1,-3.313090393E1,6.570885773E0,3.607969468E1
1.279810108E1,1.759546005E1,-4.189338226E1,-2.968027954E0,4.553531467E1
1.280817208E1,2.165876038E1,-4.147170914E1,-2.741099854E0,4.686702666E1
1.281821208E1,2.235840546E1,-3.262271072E1,1.020278320E0,3.956236238E1
1.282828308E1,1.788405991E1,-2.442860046E1,-1.150507507E0,3.029719107E1
1.283835408E1,1.039543259E1,-1.973241623E1,-4.848417664E0,2.282411932E1
1.284839408E1,3.459755402E0,-1.583197723E1,-7.129524078E0,1.770456224E1
1.285846508E1,-1.675016785E0,-1.234123627E1,-7.517666931E0,1.454740904E1
1.286853608E1,-4.715045013E0,-9.550589447E0,-6.370003510E0,1.241057424E1
1.287860608E1,-5.634882202E0,-7.719746704E0,-6.087091827E0,1.133133150E1
1.288864708E1,-4.990023193E0,-6.791227570E0,-5.764063568E0,1.021007014E1
1.289871708E1,-3.395089874E0,-5.999673615E0,-6.195616150E0,9.268677263E0
1.290878808E1,-1.140777740E0,-5.729335785E0,-8.692573700E0,1.047318003E1
1.291882908E1,1.401236115E0,-5.647306366E0,-1.258088791E1,1.386125075E1
1.292889908E1,4.825215912E0,-5.234764252E0,-1.644390472E1,1.791891369E1
1.293897008E1,9.761051788E0,-4.358037415E0,-1.961640747E1,2.233996563E1
1.294901008E1,1.394649811E1,-3.117716675E0,-1.980920654E1,2.442600316E1
1.295908108E1,1.585981934E1,-2.344125366E0,-1.406669815E1,2.132840336E1
1.296915208E1,1.522469009E1,-1.955533447E0,-4.029919739E0,1.586995755E1
1.297919208E1,1.233000961E1,-1.224304047E0,4.188739471E0,1.307951053E1
1.298926308E1,7.902366943E0,-5.680686951E-1,4.975353699E0,9.355439582E0
1.299933408E1,2.259850616E0,-1.179846497E0,1.644031219E0,3.033447085E0
1.300937408E1,-3.636088715E0,-2.370171204E0,-1.135987701E0,4.486571155E0
1.301944508E1,-9.199868774E0,-3.749702454E0,-2.939886475E0,1.036053987E1
1.302951608E1,-1.283296371E1,-4.698878632E0,-1.792672119E0,1.378325402E1
1.303958708E1,-1.302127213E1,-5.963898010E0,1.060544586E0,1.436127996E1
1.304962708E1,-1.004321503E1,-1.023346939E1,4.018992462E0,1.489101623E1
1.305969808E1,-6.011499023E0,-1.576267136E1,6.150559845E0,1.795631686E1
1.306976808E1,-1.805695038E0,-2.059177917E1,6.870113525E0,2.178257019E1
1.307980908E1,2.329455872E0,-2.347059265E1,5.752387848E0,2.427725376E1
1.308988008E1,5.407505035E0,-2.479144592E1,2.648891602E0,2.551222312E1
1.309995008E1,7.470814362E0,-2.609478561E1,-4.917274475E-1,2.714760946E1
1.310999108E1,7.871830444E0,-2.829296448E1,-2.359842682E0,2.946228795E1
1.312006108E1,6.742578735E0,-3.098661301E1,-3.242407379E0,3.187704126E1
1.313013208E1,5.196443939E0,-3.305171860E1,-3.514990540E0,3.364185325E1
1.314017308E1,2.872077484E0,-3.429638031E1,-2.680775299E0,3.452067623E1
1.315024308E1,7.839198303E-1,-3.462075577E1,-1.486708374E0,3.466152856E1
1.316031408E1,2.823129272E-1,-3.464470596E1,2.465373230E-1,3.464673336E1
1.317035408E1,1.195114746E0,-3.331068008E1,2.006277924E0,3.339243714E1
1.318042508E1,2.391576691E0,-3.024475571E1,2.355950775E0,3.043050100E1
1.319049608E1,3.481011200E0,-2.550905365E1,2.952160950E0,2.591417588E1
1.320056708E1,4.227957916E0,-1.945534241E1,5.621260529E0,2.068778737E1
1.321060708E1,5.614225159E0,-1.325463684E1,9.742640076E0,1.738171331E1
1.322067808E1,7.142696686E0,-7.701784058E0,1.117665802E1,1.533796851E1
1.323074908E1,7.867190094E0,-3.530109100E0,1.076860657E1,1.379555137E1
1.324078908E1,7.007527771E0,-7.673043823E-1,1.020936951E1,1.240666866E1
1.325086008E1,4.753515015E0,1.365909576E0,9.487869873E0,1.069959292E1
1.326093108E1,2.004032593E0,3.740721130E0,8.766669617E0,9.739796578E0
1.327097108E1,-9.099577332E-1,6.638844452E0,8.356372833E0,1.071126723E1
1.328104208E1,-4.081562347E0,1.076651093E1,6.821614380E0,1.338324817E1
1.329111208E1,-8.396190033E0,1.552047501E1,4.239633636E0,1.814815817E1
1.330115308E1,-1.322425003E1,1.844419510E1,4.204905853E0,2.308138546E1
1.331122408E1,-1.586640564E1,1.766521500E1,6.333180084E0,2.457461737E1
1.332129408E1,-1.099074463E1,1.123533600E1,7.799680481E0,1.754606104E1
1.333133508E1,-2.400258636E0,5.819448395E0,6.968159637E0,9.390552160E0
1.334140508E1,1.427431641E0,3.769760742E0,5.413492584E0,6.749411760E0
1.335147608E1,2.503693542E0,2.273172913E0,3.194357300E0,4.651850707E0
1.336154708E1,2.517165527E0,-2.516267395E-1,1.886526947E0,3.155696790E0
1.337158708E1,2.859952698E0,-2.937940521E0,9.250762939E-2,4.101143938E0
1.338165808E1,4.494254150E0,-6.172264709E0,-5.522166595E0,9.422817833E0
1.339172908E1,6.886728973E0,-9.523944855E0,-1.702619385E1,2.068873700E1
1.340176908E1,8.597072296E0,-1.132829269E1,-2.888573181E1,3.219666706E1
1.341184008E1,6.727011108E0,-9.420509949E0,-3.022739182E1,3.236810007E1
1.342191108E1,1.898951111E0,-6.905739441E0,-2.432037552E1,2.535302581E1
1.343195108E1,-4.897964630E0,-4.254752197E0,-1.015667908E1,1.205201658E1
1.344202208E1,-1.610860199E1,-5.137765961E0,1.986968079E0,1.702444534E1
1.345209308E1,-1.976055771E1,-2.243010635E1,2.503394165E0,2.999760481E1
1.346213308E1,-1.105690704E1,-3.610806290E1,9.447154541E0,3.892680476E1
1.347220408E1,-7.793842621E0,-3.830728958E1,1.698502945E1,4.262257199E1
1.348227508E1,-7.982600098E0,-2.939093124E1,1.732587067E1,3.503904305E1
1.349231508E1,-5.284610596E0,-1.452893692E1,1.470287521E1,2.133522104E1
1.350238608E1,-2.218237152E0,-2.415526886E0,1.641770920E1,1.674205846E1
1.351245608E1,2.625540161E-1,5.489534454E0,1.921973236E1,1.999004840E1
1.352252708E1,2.384990387E0,7.419171753E0,1.517768784E1,1.706149163E1
1.353256808E1,5.296136627E0,5.014123077E0,9.633966064E0,1.208320303E1
1.354263808E1,8.461454315E0,-3.916605377E0,6.539900208E0,1.138886744E1
1.355270908E1,9.446106720E0,-1.446891174E1,8.060138855E0,1.906683449E1
1.356274908E1,1.086276077E1,-2.216111572E1,1.177421539E1,2.734495876E1
1.357282008E1,1.346195572E1,-2.869023834E1,1.099673218E1,3.354522539E1
1.358289108E1,1.555086182E1,-3.648258408E1,4.469555511E0,3.990971273E1
1.359293108E1,1.664029633E1,-4.150464066E1,3.790118408E-1,4.471776278E1
1.360300208E1,1.612312180E1,-3.818244919E1,1.778451691E0,4.148514641E1
1.361307308E1,1.488998611E1,-2.879307449E1,2.460433502E0,3.250856131E1
1.362311308E1,1.218196747E1,-2.206306961E1,3.638932800E-1,2.520539209E1
1.363318408E1,7.605534210E0,-1.868085297E1,-3.886218567E0,2.054071841E1
1.364325508E1,1.866618347E0,-1.696631836E1,-8.062982941E0,1.887728573E1
1.365329508E1,-2.576891327E0,-1.516825745E1,-9.300758972E0,1.797833475E1
1.366336608E1,-5.342839508E0,-1.378588211E1,-9.341025238E0,1.748860292E1
1.367343708E1,-6.311774597E0,-1.218660782E1,-9.109307098E0,1.647213965E1
1.368350708E1,-5.754184113E0,-9.708511047E0,-8.861721954E0,1.434907445E1
1.369354808E1,-4.311184845E0,-7.477999420E0,-8.449329529E0,1.207882277E1
1.370361908E1,-2.388882294E0,-5.999673615E0,-8.938212891E0,1.102698924E1
1.371368908E1,-1.363664246E-1,-5.117557983E0,-1.143741577E1,1.253086091E1
1.372373008E1,3.320245514E0,-4.437522125E0,-1.417986282E1,1.522445870E1
1.373380771E1,8.153544617E0,-3.412753143E0,-1.506467285E1,1.746629732E1
1.374387871E1,1.216789673E1,-1.478176117E0,-1.388078476E1,1.851806958E1
1.375391971E1,1.480152008E1,2.775228882E-1,-1.180565002E1,1.893503071E1
1.376398971E1,1.647069901E1,7.032376099E-1,-7.785609741E0,1.823168089E1
1.377406071E1,1.663011749E1,1.118174744E-1,-2.193538513E0,1.677453195E1
1.378410071E1,1.483819382E1,-1.194515991E0,2.189347229E0,1.504633196E1
1.379417171E1,1.072744217E1,-3.130140839E0,2.629881134E0,1.148007282E1
1.380424271E1,4.996160431E0,-4.919370117E0,-2.853067017E-1,7.017351446E0
1.381428271E1,-1.108894043E0,-5.521118774E0,-9.177415466E-1,5.705668065E0
1.382435371E1,-6.493496704E0,-5.659131775E0,-1.649569702E-1,8.615014956E0
1.383442471E1,-1.047342041E1,-7.386988678E0,2.185754700E0,1.300144840E1
1.384446471E1,-1.172721313E1,-1.119806351E1,6.181395721E0,1.735320741E1
1.385453571E1,-9.743687897E0,-1.606219849E1,9.591903534E0,2.109356033E1
1.386460671E1,-6.957831116E0,-1.991294083E1,9.815388794E0,2.326539240E1
1.387467771E1,-4.585564270E0,-2.150503006E1,7.056326294E0,2.309297422E1
1.388471771E1,-2.421963501E0,-2.252426056E1,3.503763885E0,2.292345049E1
1.389478871E1,2.088157654E-1,-2.290207489E1,-1.868115234E-1,2.290378870E1
1.390485871E1,2.574196930E0,-2.422577225E1,-3.784130859E0,2.465429328E1
1.391489971E1,3.163521423E0,-2.878708694E1,-5.348827057E0,2.945019853E1
1.392497071E1,2.946921844E0,-3.338821884E1,-4.295317841E0,3.379211833E1
1.393504071E1,2.659220123E0,-3.581811584E1,-1.606010284E0,3.595258187E1
1.394508171E1,2.110910339E0,-3.599429947E1,-1.814227295E-1,3.605660066E1
1.395515171E1,2.194286957E0,-3.532249649E1,2.769241333E-2,3.539059791E1
1.396522271E1,2.902464294E0,-3.397215454E1,1.542392578E0,3.413078607E1
1.397526371E1,4.102369080E0,-3.086536514E1,2.505789185E0,3.123746432E1
1.398533371E1,4.672683105E0,-2.770992691E1,3.191064148E0,2.828174159E1
1.399540471E1,5.172194366E0,-2.293365921E1,4.574487305E0,2.395057940E1
1.400544471E1,5.861361237E0,-1.636247406E1,8.285719757E0,1.925459075E1
1.401551571E1,6.837032318E0,-1.099852844E1,1.211266159E1,1.773215186E1
1.402558671E1,7.954907684E0,-6.588249664E0,1.204126007E1,1.586434789E1
1.403565771E1,8.010142822E0,-3.483555908E0,1.117141891E1,1.418090795E1
1.404569771E1,6.590494995E0,-1.237177277E0,1.134026779E1,1.317447932E1
1.405576871E1,4.089645538E0,9.738748169E-1,1.080123871E1,1.159053020E1
1.406583971E1,1.111738129E0,3.783083038E0,9.542805634E0,1.032534834E1
1.407587971E1,-2.250420227E0,7.535180511E0,8.338260498E0,1.146167198E1
1.408595071E1,-7.029831390E0,1.285960831E1,5.803282013E0,1.576280867E1
1.409602171E1,-1.284389099E1,1.839479782E1,4.425397339E0,2.286740616E1
1.410606171E1,-1.666933594E1,1.934157898E1,7.654781799E0,2.665631487E1
1.411613271E1,-1.452220093E1,1.554786804E1,8.780291290E0,2.301573452E1
1.412620271E1,-5.497767334E0,9.811796265E0,6.931934967E0,1.321168097E1
1.413624371E1,1.388213196E0,7.198081512E0,5.949677582E0,9.441301640E0
1.414631471E1,3.592828674E0,5.028044128E0,5.487438812E0,8.264480042E0
1.415638471E1,2.959346008E0,1.881736908E0,3.792064362E0,5.165115169E0
1.416642571E1,2.629581757E0,-1.291514282E0,2.527194672E0,3.869033764E0
1.417649571E1,3.126548309E0,-3.879632263E0,-7.249424744E-1,5.035115929E0
1.418656671E1,4.392615509E0,-6.564898224E0,-7.010222168E0,1.056106882E1
1.419663771E1,5.876928864E0,-9.086105347E0,-1.662562683E1,1.983701265E1
1.420667771E1,6.781647491E0,-1.096499817E1,-2.440015961E1,2.759691498E1
1.421674871E1,5.547613678E0,-1.032477951E1,-2.414598816E1,2.684037693E1
1.422681971E1,2.730471954E0,-8.105943604E0,-2.175201645E1,2.337331851E1
1.423685971E1,-1.694775696E0,-6.234086151E0,-1.419153854E1,1.559281440E1
1.424693071E1,-9.131760406E0,-5.374423828E0,-3.473377075E0,1.115068733E1
1.425700171E1,-1.569785614E1,-1.692021423E1,-2.558479614E0,2.322201875E1
1.426704171E1,-1.028541138E1,-3.179328552E1,5.488037567E0,3.386327285E1
1.427711271E1,-6.888525238E0,-3.524361053E1,1.706376572E1,3.975847034E1
1.428718371E1,-8.615334320E0,-3.063050354E1,1.819002365E1,3.665144872E1
1.429722371E1,-7.317832489E0,-1.828432755E1,1.645198792E1,2.566194093E1
1.430729471E1,-4.891378326E0,-6.113886108E0,1.420156769E1,1.621695749E1
1.431736571E1,-3.553759918E0,3.363804932E0,1.614782043E1,1.687295167E1
1.432740571E1,-1.944456482E0,7.661068726E0,1.668101166E1,1.845884706E1
1.433747671E1,1.143921204E0,6.785389709E0,1.360371094E1,1.524503265E1
1.434754671E1,5.374423828E0,-2.522254944E-1,9.766590271E0,1.115053069E1
1.435761771E1,7.810009003E0,-1.038255936E1,7.974816284E0,1.524439156E1
1.436765871E1,9.546248474E0,-2.072111023E1,8.431366882E0,2.432248377E1
1.437772871E1,1.336001770E1,-2.997082535E1,5.245092773E0,3.323027901E1
1.438779971E1,1.722483078E1,-3.710424133E1,1.653760986E0,4.094086523E1
1.439783971E1,1.838192459E1,-3.939118561E1,5.250631256E0,4.378504064E1
1.440791071E1,1.842907654E1,-3.639157333E1,8.409512329E0,4.164969831E1
1.441798171E1,1.781430496E1,-3.047018692E1,4.468208313E0,3.557733320E1
1.442802171E1,1.500000732E1,-2.478964966E1,6.783892822E-1,2.898253201E1
1.443809271E1,1.014395554E1,-2.134695877E1,-2.754721527E0,2.379455764E1
1.444816371E1,3.811523895E0,-1.924413162E1,-5.694158936E0,2.042762253E1
1.445820371E1,-2.227817230E0,-1.783017197E1,-7.080875244E0,1.931364793E1
1.446827471E1,-6.974296875E0,-1.738844055E1,-7.702532501E0,2.025654681E1
1.447834571E1,-9.645043030E0,-1.645647858E1,-7.736212463E0,2.058376850E1
1.448838571E1,-9.776320038E0,-1.400667297E1,-7.305558014E0,1.857779586E1
1.449845671E1,-8.764124908E0,-1.119761444E1,-7.405250702E0,1.603228594E1
1.450852771E1,-6.745871887E0,-8.717721405E0,-9.286388855E0,1.441327416E1
1.451859771E1,-3.414549408E0,-6.854994965E0,-1.095317276E1,1.336495781E1
1.452863871E1,9.997709656E-1,-5.845344543E0,-1.325568466E1,1.452173442E1
1.453870971E1,6.048472137E0,-5.220543823E0,-1.569441330E1,1.761115277E1
1.454877971E1,9.657167816E0,-4.722230072E0,-1.499401978E1,1.844941669E1
1.455882071E1,1.116872452E1,-3.728147278E0,-1.373304199E1,1.808966367E1
1.456889071E1,1.233015930E1,-2.694396973E0,-1.262714172E1,1.785321572E1
1.457896171E1,1.336316116E1,-2.030228119E0,-9.845027161E0,1.672185583E1
1.458900271E1,1.338890762E1,-2.023941193E0,-5.597609711E0,1.465238615E1
1.459907271E1,1.153875504E1,-2.596201172E0,-1.781295776E-1,1.182856113E1
1.460914371E1,7.829169159E0,-3.013533325E0,4.300407257E0,9.427129754E0
1.461918371E1,3.355572052E0,-2.145039368E0,4.389022980E0,5.926599396E0
1.462925471E1,-9.568103027E-1,-5.954617310E-1,3.086282043E0,3.285604584E0
1.463932571E1,-4.846322021E0,-3.775149536E-1,7.321275330E-1,4.915828048E0
1.464936571E1,-8.383167114E0,-1.564995575E0,-2.242486725E0,8.817905008E0
1.465943671E1,-9.930349731E0,-3.250640259E0,-1.211131439E0,1.051880921E1
1.466950771E1,-7.613467712E0,-6.184389496E0,2.562072144E0,1.013783891E1
1.467957871E1,-3.206931152E0,-1.077130096E1,5.354664917E0,1.244900672E1
1.468961871E1,1.494043121E0,-1.612192429E1,6.592141571E0,1.748155994E1
1.469968971E1,5.933511200E0,-2.199660782E1,6.693181458E0,2.374565200E1
1.470976071E1,8.871152344E0,-2.621438690E1,5.183720398E0,2.815603633E1
1.471980071E1,8.903185730E0,-2.842199615E1,2.930905151E0,2.992769264E1
1.472987171E1,6.320456543E0,-2.926998276E1,5.081932068E-1,2.994892856E1
1.473995337E1,4.256398773E0,-2.872795990E1,-1.336570587E0,2.907230695E1
1.474999437E1,2.768941956E0,-2.941877335E1,-2.433190155E0,2.964880569E1
1.476006537E1,8.544232178E-1,-3.096640503E1,-3.148702240E0,3.113780026E1
1.477013537E1,-6.966513062E-1,-3.094859207E1,-3.368295593E0,3.113914080E1
1.478017637E1,-1.496587830E0,-3.060131424E1,-2.516866150E0,3.074109340E1
1.479024637E1,-1.616189117E0,-3.105307480E1,-9.722282410E-1,3.111029973E1
1.480031737E1,-7.807763672E-1,-3.054128906E1,9.111552429E-1,3.056485160E1
1.481035837E1,5.836363220E-1,-2.832874008E1,1.838177490E0,2.839431356E1
1.482042837E1,1.821262665E0,-2.448173996E1,2.433040466E0,2.466966305E1
1.483049937E1,2.766696625E0,-1.977956818E1,3.757785645E0,2.032257071E1
1.484057037E1,3.859124908E0,-1.497590744E1,6.535409546E0,1.678934861E1
1.485061037E1,4.842280426E0,-1.040875488E1,8.523275757E0,1.429811483E1
1.486068137E1,5.927823029E0,-6.549480286E0,8.934770050E0,1.256442970E1
1.487075237E1,6.662644958E0,-3.581602020E0,8.707692261E0,1.153441006E1
1.488079237E1,6.341263275E0,-1.422641602E0,8.311765594E0,1.055087562E1
1.489086337E1,4.860991516E0,6.090834045E-1,8.172854462E0,9.528681502E0
1.490093438E1,2.352058868E0,3.495081940E0,8.166118469E0,9.188757780E0
1.491097437E1,-1.496887207E0,7.582781525E0,7.568860474E0,1.081789702E1
1.492104537E1,-7.729626160E0,1.280272659E1,4.860093384E0,1.572505760E1
1.493111637E1,-1.355386459E1,1.684237610E1,3.697910156E0,2.193279320E1
1.494115637E1,-1.417597092E1,1.614557510E1,6.932084656E0,2.257634923E1
1.495122737E1,-6.625522156E0,1.121033798E1,7.646399231E0,1.510088218E1
1.496129737E1,1.425934753E0,7.403903503E0,6.639293518E0,1.004645686E1
1.497133837E1,4.079167328E0,5.990692291E0,6.399791565E0,9.668781324E0
1.498140937E1,3.374881897E0,2.810256042E0,5.243895264E0,6.840014940E0
1.499147937E1,2.114053802E0,-7.436535645E-1,4.049528961E0,4.628274939E0
1.500155037E1,1.914219360E0,-3.424877930E0,1.850152588E0,4.337866894E0
1.501159037E1,2.790646820E0,-6.664740601E0,-3.714226227E0,8.124158628E0
1.502166137E1,4.193529510E0,-1.041983185E1,-1.420441177E1,1.810866918E1
1.503173237E1,5.045557709E0,-1.304507263E1,-2.384481445E1,2.764428962E1
1.504177237E1,4.070186005E0,-1.280811539E1,-2.619822052E1,2.944420134E1
1.505184337E1,2.059118042E0,-1.011371841E1,-2.376458130E1,2.590912178E1
1.506191437E1,1.601669312E-2,-7.450456696E0,-2.034329590E1,2.166470054E1
1.507195437E1,-3.535198517E0,-4.804558868E0,-1.179442337E1,1.321702830E1
1.508202537E1,-9.551188202E0,-1.568139038E0,2.402953033E0,9.972885209E0
1.509209637E1,-1.378947464E1,-7.389982452E0,6.943910065E0,1.711663923E1
1.510213637E1,-1.033555710E1,-2.044972458E1,1.060784088E1,2.524957948E1
1.511220737E1,-7.817194061E0,-2.651750656E1,1.337528595E1,3.071131634E1
1.512227837E1,-8.642727356E0,-2.706851074E1,1.179636932E1,3.076613949E1
1.513231837E1,-8.582253113E0,-2.041634399E1,1.248179398E1,2.542198559E1
1.514238937E1,-6.547534332E0,-1.110375961E1,1.194725555E1,1.757556823E1
1.515246038E1,-4.333937531E0,-3.309318237E0,1.421339310E1,1.522350633E1
1.516253037E1,-2.203717346E0,8.214916992E-1,1.628658188E1,1.645551482E1
1.517257137E1,4.218228149E-1,4.150868225E-1,1.392150009E1,1.393407321E1
1.518264137E1,3.697610779E0,-3.741619263E0,1.129850464E1,1.246307535E1
1.519271237E1,6.156996460E0,-1.183962936E1,1.005548950E1,1.670922793E1
1.520275337E1,8.178392944E0,-1.952060669E1,1.044168640E1,2.360019092E1
1.521282337E1,1.154040161E1,-2.581875961E1,7.085365906E0,2.915461588E1
1.522289437E1,1.520642807E1,-3.232213577E1,1.984123993E0,3.577558754E1
1.523293437E1,1.702529572E1,-3.552921661E1,2.220482483E0,3.946031513E1
1.524300537E1,1.710118790E1,-3.314961502E1,6.568341064E0,3.787467106E1
1.525307637E1,1.701362000E1,-2.805825256E1,5.410349121E0,3.325658852E1
1.526311637E1,1.519295609E1,-2.392325134E1,3.529660034E-1,2.834206158E1
1.527318737E1,1.133742371E1,-2.087034988E1,-3.370989990E0,2.398900277E1
1.528325837E1,5.413342896E0,-1.974633728E1,-6.929689636E0,2.161579783E1
1.529329837E1,-9.063652039E-1,-1.930101334E1,-8.824898529E0,2.124216203E1
1.530336937E1,-5.986351318E0,-1.880479523E1,-9.003926239E0,2.169164386E1
1.531344037E1,-8.532107391E0,-1.746103958E1,-7.904163208E0,2.098000371E1
1.532351137E1,-8.883277130E0,-1.493399460E1,-7.365583191E0,1.887296010E1
1.533355137E1,-8.205187225E0,-1.214259933E1,-7.720495148E0,1.656423440E1
1.534362237E1,-6.346801758E0,-9.418563995E0,-9.141340485E0,1.457927797E1
1.535369237E1,-3.111429749E0,-7.152276764E0,-1.061293030E1,1.317081423E1
1.536373337E1,1.141975250E0,-5.594765625E0,-1.226863724E1,1.353236748E1
1.537380437E1,5.980513458E0,-4.555177460E0,-1.441756851E1,1.625984209E1
1.538387437E1,9.900262299E0,-4.195475464E0,-1.515134262E1,1.857903095E1
1.539391537E1,1.175340866E1,-4.087849274E0,-1.364577347E1,1.846781688E1
1.540398538E1,1.260109589E1,-3.608246613E0,-9.729317780E0,1.632380733E1
1.541405637E1,1.310764252E1,-2.483934631E0,-5.369933167E0,1.438111282E1
1.542409737E1,1.262983612E1,-1.428778839E0,-1.664987640E0,1.281898410E1
1.543416737E1,1.047491730E1,-1.382075958E0,1.530267792E0,1.067594239E1
1.544423837E1,6.791826324E0,-1.695973206E0,2.834355927E0,7.552403820E0
1.545427838E1,2.871478729E0,-1.632056122E0,2.312241669E0,4.031805900E0
1.546434937E1,-6.074368286E-1,-1.100661163E0,1.404229889E0,1.884753586E0
1.547442037E1,-3.672463074E0,-4.670288086E-1,-6.776408386E-1,3.763548597E0
1.548446037E1,-6.606362000E0,-4.195774841E-1,-2.614762573E0,7.117376444E0
1.549453137E1,-8.097411346E0,-1.087189178E0,-1.874851227E0,8.382429120E0
1.550460237E1,-6.719227295E0,-3.252586212E0,1.281485138E0,7.574268061E0
1.551467337E1,-3.371888123E0,-7.320676575E0,4.023034058E0,9.008148425E0
1.552471337E1,6.969506836E-1,-1.279778687E1,5.882018280E0,1.410202921E1
1.553478437E1,4.716691589E0,-1.941777054E1,6.402336273E0,2.098301461E1
1.554485537E1,8.449479218E0,-2.591171631E1,6.187832336E0,2.794816649E1
1.555489537E1,1.096559692E1,-2.940590012E1,3.714974670E0,3.160304280E1
1.556496637E1,9.919272766E0,-3.012994446E1,2.082170105E-1,3.172142619E1
1.557503637E1,6.813531189E0,-2.906026886E1,-2.850671997E0,2.998415856E1
1.558507737E1,4.708009644E0,-2.829835327E1,-4.633314972E0,2.905907363E1
1.559514837E1,2.854863281E0,-2.991858398E1,-5.297334137E0,3.051775976E1
1.560521837E1,9.262738037E-1,-3.111444717E1,-5.060376892E0,3.153687081E1
1.561525937E1,-7.509883118E-1,-3.141547119E1,-3.639681244E0,3.163452375E1
1.562532937E1,-1.596579895E0,-3.202530304E1,-1.864073639E0,3.211921345E1
1.563540037E1,-1.434317322E0,-3.169374252E1,-2.173480225E-1,3.172692581E1
1.564544137E1,-4.020639038E-1,-2.887300827E1,8.175997925E-1,2.888738014E1
1.565551138E1,1.325044556E0,-2.399001251E1,1.296903076E0,2.406155442E1
1.566558237E1,2.873724060E0,-1.899025955E1,2.783162384E0,1.940706677E1
1.567565337E1,4.385280762E0,-1.464749039E1,5.869594116E0,1.637778364E1
1.568569337E1,5.732479248E0,-1.053060150E1,7.927065582E0,1.437335226E1
1.569576437E1,6.765331421E0,-6.838828583E0,8.395890656E0,1.276833057E1
1.570583537E1,7.251670074E0,-3.940705261E0,8.718918915E0,1.200564134E1
1.571587537E1,6.393953705E0,-1.888173523E0,9.127718811E0,1.130323378E1
1.572594637E1,4.362378387E0,1.766326904E-1,9.317973175E0,1.029010050E1
1.573605846E1,1.531165924E0,3.244203644E0,8.345894623E0,9.084232682E0
1.574609846E1,-2.783761139E0,7.876021729E0,5.454058228E0,9.976361837E0
1.575616946E1,-8.428971863E0,1.393197830E1,1.673669586E0,1.636914035E1
1.576624046E1,-1.245844254E1,1.793360687E1,2.239942017E0,2.195095410E1
1.577628046E1,-1.107412125E1,1.636217468E1,6.290818176E0,2.073478515E1
1.578635146E1,-3.893403625E0,1.079225739E1,5.869594116E0,1.288734055E1
1.579642146E1,1.150058441E0,6.704557800E0,4.640350342E0,8.234475151E0
1.580646246E1,1.823957062E0,4.531227264E0,4.291425934E0,6.501936360E0
1.581653346E1,4.079017639E-1,1.451681213E0,3.659290466E0,3.957798493E0
1.582660346E1,-7.689509583E-1,-1.501826935E0,3.089724884E0,3.520393384E0
1.583667446E1,-1.075363770E0,-4.289929047E0,1.077758789E0,4.552083311E0
1.584671446E1,-1.826202393E-2,-7.002887421E0,-3.797453156E0,7.966267394E0
1.585678546E1,1.839375000E0,-1.021236328E1,-1.181478104E1,1.572465310E1
1.586685646E1,3.077151031E0,-1.284927979E1,-2.078278198E1,2.462715729E1
1.587689646E1,2.107916565E0,-1.317575089E1,-2.400303543E1,2.746250960E1
1.588696746E1,5.947132874E-1,-1.039887543E1,-2.363899246E1,2.583200067E1
1.589703846E1,-1.075064392E0,-7.694598999E0,-2.343811020E1,2.469225844E1
1.590707846E1,-4.806953888E0,-5.886958008E0,-1.665780991E1,1.830971630E1
1.591714946E1,-1.138771912E1,-5.776936798E0,1.195414124E0,1.282505986E1
1.592722046E1,-1.391386597E1,-1.541165131E1,1.512080612E1,2.568566604E1
1.593726046E1,-9.757758636E0,-2.471675125E1,1.850945938E1,3.238412779E1
1.594733146E1,-9.473350067E0,-2.528781372E1,1.699131638E1,3.190490114E1
1.595740246E1,-1.029544052E1,-1.774499908E1,1.358799362E1,2.460720745E1
1.596744246E1,-8.099956055E0,-7.484136658E0,1.105166794E1,1.561284579E1
1.597751346E1,-3.800596619E0,1.215921478E0,1.376597351E1,1.433265594E1
1.598758446E1,-3.333567810E-1,5.737119598E0,1.732931351E1,1.825734851E1
1.599765446E1,3.157234497E0,5.844296722E0,1.640618317E1,1.769990904E1
1.600769546E1,7.987839203E0,7.075785828E-1,1.079225739E1,1.344541045E1
1.601776546E1,1.025906616E1,-8.120463409E0,4.001927948E0,1.368231676E1
1.602783646E1,1.052940399E1,-1.734188736E1,6.376739502E-2,2.028825946E1
1.603787746E1,1.265752853E1,-2.479129623E1,-3.811523895E0,2.809535748E1
1.604794746E1,1.332049988E1,-2.756083694E1,-6.236032104E-1,3.061738609E1
1.605801846E1,1.216116074E1,-2.962130219E1,5.187312927E0,3.243799607E1
1.606805846E1,1.201386703E1,-3.148777084E1,7.234904938E0,3.446964699E1
1.607812946E1,1.319251602E1,-3.166470291E1,4.890031128E0,3.464979500E1
1.608820046E1,1.499596573E1,-2.885175247E1,2.042951660E0,3.258030479E1
1.609824046E1,1.500479736E1,-2.488739639E1,-1.402134247E0,2.909454285E1
1.610831146E1,1.206371338E1,-2.181279007E1,-3.504063263E0,2.517160008E1
1.611838246E1,6.751560059E0,-2.012504974E1,-4.272714844E0,2.165311254E1
1.612842246E1,-3.712280273E-2,-1.909040131E1,-4.919370117E0,1.971408132E1
1.613849346E1,-6.077062683E0,-1.817774918E1,-4.932393036E0,1.979115350E1
1.614856446E1,-9.161997528E0,-1.708292587E1,-5.799839172E0,2.023380067E1
1.615863546E1,-9.931547241E0,-1.553768921E1,-7.291636963E0,1.982986097E1
1.616867546E1,-8.458759918E0,-1.354772736E1,-8.681945801E0,1.817877110E1
1.617874646E1,-5.554199982E0,-1.148337021E1,-9.837991791E0,1.610909716E1
1.618881646E1,-2.803370361E0,-1.003977219E1,-1.141586060E1,1.545890630E1
1.619885746E1,-3.472778320E-1,-8.949289856E0,-1.376342880E1,1.642079058E1
1.620892846E1,2.319875793E0,-7.522007904E0,-1.603720047E1,1.786488806E1
1.621899846E1,5.808371429E0,-5.483097839E0,-1.663775162E1,1.845579366E1
1.622903946E1,9.130263519E0,-3.208428040E0,-1.542662018E1,1.821088500E1
1.623910946E1,1.085587509E1,-1.176852722E0,-1.537827072E1,1.886070563E1
1.624918046E1,1.154339539E1,-1.377136230E-1,-1.193348419E1,1.660352333E1
1.625922146E1,1.058239380E1,-4.905299377E-1,-2.768193512E0,1.094945540E1
1.626929146E1,8.218210144E0,-9.180409241E-1,4.462220764E0,9.396445672E0
1.627936246E1,5.160368958E0,-9.506730652E-1,5.117707672E0,7.329673858E0
1.628940246E1,1.910926208E0,-9.726773071E-1,2.641107788E0,3.401939221E0
1.629947346E1,-1.309925995E0,-1.099763031E0,-7.262896729E-1,1.858193081E0
1.630954446E1,-4.230802002E0,-1.725012817E0,-2.992127838E0,5.461518452E0
1.631961546E1,-5.981710968E0,-2.206561432E0,-2.593357086E0,6.882970321E0
1.632965546E1,-5.629942474E0,-2.789598999E0,-5.523513794E-2,6.283403995E0
1.633972646E1,-3.063379669E0,-4.949607239E0,2.169738007E0,6.212138910E0
1.634979746E1,1.146465912E0,-9.188043365E0,3.168461151E0,9.786402354E0
1.635983746E1,5.812712402E0,-1.447445023E1,3.458557892E0,1.597682564E1
1.636990846E1,9.745783539E0,-2.060659836E1,3.061433716E0,2.299966454E1
1.637997946E1,1.363948654E1,-2.660013474E1,3.268902283E0,3.007138978E1
1.639001946E1,1.604977432E1,-2.905742477E1,2.003134460E0,3.325570234E1
1.640009046E1,1.353560257E1,-2.923480591E1,1.809736633E-1,3.221675286E1
1.641016046E1,8.813971252E0,-2.910906738E1,-7.532336426E-1,3.042353126E1
1.642020146E1,4.812342682E0,-3.100038437E1,-2.489323425E0,3.147029082E1
1.643027246E1,1.282083893E0,-3.464141281E1,-5.063370667E0,3.503296937E1
1.644034246E1,-5.830375671E-1,-3.721306503E1,-5.481900330E0,3.761918890E1
1.645038346E1,-1.430874481E0,-3.755330750E1,-4.411027222E0,3.783854472E1
1.646045346E1,-1.550775146E0,-3.561289261E1,-3.116519165E0,3.578261750E1
1.647052446E1,-3.095562744E-1,-3.137131302E1,-1.783990173E0,3.142352187E1
1.648059546E1,2.114951935E0,-2.558285019E1,6.340814209E-1,2.567795367E1
1.649063546E1,4.536765747E0,-1.989258316E1,3.562741241E0,2.071207941E1
1.650070646E1,6.350543976E0,-1.483190689E1,6.645131378E0,1.744914444E1
1.651077746E1,7.551197205E0,-1.005369324E1,9.192234650E0,1.557544557E1
1.652081746E1,7.816146240E0,-5.940845947E0,9.966574402E0,1.398993917E1
1.653088846E1,6.846762085E0,-2.874622192E0,1.025307861E1,1.265966922E1
1.654095946E1,4.643493805E0,-8.408015442E-1,9.355245667E0,1.047805342E1
1.655099946E1,1.829794922E0,5.228627014E-1,8.716523895E0,8.921845307E0
1.656107046E1,-1.660646667E0,2.055675201E0,7.981851654E0,8.407942894E0
1.657114146E1,-5.109923859E0,4.652774506E0,6.733298035E0,9.648675291E0
1.658118146E1,-8.590186615E0,8.555907898E0,4.271816711E0,1.285469891E1
1.659125246E1,-1.230695755E1,1.246323257E1,1.924847260E0,1.762096499E1
1.660132346E1,-1.501976624E1,1.489268051E1,1.222956848E0,2.118681038E1
1.661136346E1,-1.485959930E1,1.395323410E1,1.532812500E0,2.044137832E1
1.662143446E1,-9.541458435E0,9.486672363E0,2.339634705E0,1.365687637E1
1.663150446E1,-2.859952698E0,5.094206543E0,3.070115662E0,6.599687865E0
1.664157546E1,-1.031355286E-1,3.016676788E0,3.823349304E0,4.871239646E0
1.665161646E1,-2.194436646E-1,9.223818970E-1,4.524042206E0,4.622326445E0
1.666168646E1,-1.094224548E0,-1.613494720E0,5.171595612E0,5.526852065E0
1.667175746E1,-1.255289612E0,-3.840114441E0,4.747377777E0,6.233765049E0
1.668179746E1,-9.406439209E-1,-5.844446411E0,2.184706879E0,6.309937320E0
1.669186846E1,2.103126526E-1,-8.087082825E0,-3.008593597E0,8.631151456E0
1.670193946E1,1.888622589E0,-1.078162949E1,-1.170775360E1,1.602753643E1
1.671197946E1,2.149829407E0,-1.135119507E1,-1.882575165E1,2.208801306E1
1.672205046E1,7.345225525E-1,-8.329728241E0,-2.062905167E1,2.225941753E1
1.673213871E1,-8.090675354E-1,-5.639372864E0,-2.264940033E1,2.335492350E1
1.674217871E1,-4.898563385E0,-3.987408142E0,-1.823478058E1,1.929773483E1
1.675224971E1,-8.735234985E0,-8.856632538E0,-8.567882996E0,1.510473069E1
